time,px,py,pz,qw,qx,qy,qz,vx,vy,vz,wx,wy,wz,ax,ay,az,mx,my,mz
0,0,0,0,1,-0,-0,-0,0,0,0,0.2,0,0,0,0,0,0,0,0
0.001,0,0,0,0.999999995,9.99999998332708e-05,-0,-0,0,0,0,0.2,0,0,0,0,0,0,0,0
0.002,0,0,0,0.99999998,0.000199999998666542,-0,-0,0,0,0,0.2,0,0,0,0,0,0,0,0
0.003,0,0,0,0.999999955,0.000299999995499812,-0,-0,0,0,0,0.2,0,0,0,0,0,0,0,0
0.004,0,0,0,0.999999920000001,0.000399999989333083,-0,-0,0,0,0,0.2,0,0,0,0,0,0,0,0
0.005,0,0,0,0.999999875000003,0.000499999979166354,-0,-0,0,0,0,0.2,0,0,0,0,0,0,0,0
0.006,0,0,0,0.999999820000005,0.000599999963999625,-0,-0,0,0,0,0.2,0,0,0,0,0,0,0,0
0.007,0,0,0,0.99999975500001,0.000699999942832897,-0,-0,0,0,0,0.2,0,0,0,0,0,0,0,0
0.008,0,0,0,0.999999680000017,0.000799999914666169,-0,-0,0,0,0,0.2,0,0,0,0,0,0,0,0
0.009,0,0,0,0.999999595000027,0.000899999878499442,-0,-0,0,0,0,0.2,0,0,0,0,0,0,0,0
0.01,0,0,0,0.999999500000042,0.000999999833332716,-0,-0,0,0,0,0.2,0,0,0,0,0,0,0,0
0.011,0,0,0,0.999999395000061,0.00109999977816599,-0,-0,0,0,0,0.2,0,0,0,0,0,0,0,0
0.012,0,0,0,0.999999280000086,0.00119999971199927,-0,-0,0,0,0,0.2,0,0,0,0,0,0,0,0
0.013,0,0,0,0.999999155000119,0.00129999963383255,-0,-0,0,0,0,0.2,0,0,0,0,0,0,0,0
0.014,0,0,0,0.99999902000016,0.00139999954266584,-0,-0,0,0,0,0.2,0,0,0,0,0,0,0,0
0.015,0,0,0,0.999998875000211,0.00149999943749913,-0,-0,0,0,0,0.2,0,0,0,0,0,0,0,0
0.016,0,0,0,0.999998720000273,0.00159999931733242,-0,-0,0,0,0,0.2,0,0,0,0,0,0,0,0
0.017,0,0,0,0.999998555000348,0.00169999918116572,-0,-0,0,0,0,0.2,0,0,0,0,0,0,0,0
0.018,0,0,0,0.999998380000437,0.00179999902799903,-0,-0,0,0,0,0.2,0,0,0,0,0,0,0,0
0.019,0,0,0,0.999998195000543,0.00189999885683235,-0,-0,0,0,0,0.2,0,0,0,0,0,0,0,0
0.02,0,0,0,0.999998000000667,0.00199999866666568,-0,-0,0,0,0,0.2,0,0,0,0,0,0,0,0
0.021,0,0,0,0.99999779500081,0.00209999845649903,-0,-0,0,0,0,0.2,0,0,0,0,0,0,0,0
0.022,0,0,0,0.999997580000976,0.00219999822533239,-0,-0,0,0,0,0.2,0,0,0,0,0,0,0,0
0.023,0,0,0,0.999997355001166,0.00229999797216576,-0,-0,0,0,0,0.2,0,0,0,0,0,0,0,0
0.024,0,0,0,0.999997120001382,0.00239999769599916,-0,-0,0,0,0,0.2,0,0,0,0,0,0,0,0
0.025,0,0,0,0.999996875001628,0.00249999739583258,-0,-0,0,0,0,0.2,0,0,0,0,0,0,0,0
0.026,0,0,0,0.999996620001904,0.00259999707066603,-0,-0,0,0,0,0.2,0,0,0,0,0,0,0,0
0.027,0,0,0,0.999996355002214,0.00269999671949951,-0,-0,0,0,0,0.2,0,0,0,0,0,0,0,0
0.028,0,0,0,0.999996080002561,0.00279999634133302,-0,-0,0,0,0,0.2,0,0,0,0,0,0,0,0
0.029,0,0,0,0.999995795002947,0.00289999593516656,-0,-0,0,0,0,0.2,0,0,0,0,0,0,0,0
0.03,0,0,0,0.999995500003375,0.00299999550000015,-0,-0,0,0,0,0.2,0,0,0,0,0,0,0,0
0.031,0,0,0,0.999995195003848,0.00309999503483378,-0,-0,0,0,0,0.2,0,0,0,0,0,0,0,0
0.032,0,0,0,0.999994880004369,0.00319999453866746,-0,-0,0,0,0,0.2,0,0,0,0,0,0,0,0
0.033,0,0,0,0.999994555004941,0.0032999940105012,-0,-0,0,0,0,0.2,0,0,0,0,0,0,0,0
0.034,0,0,0,0.999994220005568,0.00339999344933499,-0,-0,0,0,0,0.2,0,0,0,0,0,0,0,0
0.035,0,0,0,0.999993875006253,0.00349999285416885,-0,-0,0,0,0,0.2,0,0,0,0,0,0,0,0
0.036,0,0,0,0.999993520006998,0.00359999222400279,-0,-0,0,0,0,0.2,0,0,0,0,0,0,0,0
0.037,0,0,0,0.999993155007809,0.0036999915578368,-0,-0,0,0,0,0.2,0,0,0,0,0,0,0,0
0.038,0,0,0,0.999992780008688,0.00379999085467089,-0,-0,0,0,0,0.2,0,0,0,0,0,0,0,0
0.039,0,0,0,0.999992395009639,0.00389999011350508,-0,-0,0,0,0,0.2,0,0,0,0,0,0,0,0
0.04,0,0,0,0.999992000010667,0.00399998933333937,-0,-0,0,0,0,0.2,0,0,0,0,0,0,0,0
0.041,0,0,0,0.999991595011774,0.00409998851317376,-0,-0,0,0,0,0.2,0,0,0,0,0,0,0,0
0.042,0,0,0,0.999991180012965,0.00419998765200826,-0,-0,0,0,0,0.2,0,0,0,0,0,0,0,0
0.043,0,0,0,0.999990755014245,0.0042999867488429,-0,-0,0,0,0,0.2,0,0,0,0,0,0,0,0
0.044,0,0,0,0.999990320015617,0.00439998580267766,-0,-0,0,0,0,0.2,0,0,0,0,0,0,0,0
0.045,0,0,0,0.999989875017086,0.00449998481251256,-0,-0,0,0,0,0.2,0,0,0,0,0,0,0,0
0.046,0,0,0,0.999989420018656,0.00459998377734762,-0,-0,0,0,0,0.2,0,0,0,0,0,0,0,0
0.047,0,0,0,0.999988955020332,0.00469998269618284,-0,-0,0,0,0,0.2,0,0,0,0,0,0,0,0
0.048,0,0,0,0.999988480022118,0.00479998156801823,-0,-0,0,0,0,0.2,0,0,0,0,0,0,0,0
0.049,0,0,0,0.99998799502402,0.00489998039185381,-0,-0,0,0,0,0.2,0,0,0,0,0,0,0,0
0.05,0,0,0,0.999987500026042,0.00499997916668958,-0,-0,0,0,0,0.2,0,0,0,0,0,0,0,0
0.051,0,0,0,0.999986995028188,0.00509997789152556,-0,-0,0,0,0,0.2,0,0,0,0,0,0,0,0
0.052,0,0,0,0.999986480030465,0.00519997656536177,-0,-0,0,0,0,0.2,0,0,0,0,0,0,0,0
0.053,0,0,0,0.999985955032877,0.0052999751871982,-0,-0,0,0,0,0.2,0,0,0,0,0,0,0,0
0.054,0,0,0,0.999985420035429,0.00539997375603489,-0,-0,0,0,0,0.2,0,0,0,0,0,0,0,0
0.055,0,0,0,0.999984875038128,0.00549997227087184,-0,-0,0,0,0,0.2,0,0,0,0,0,0,0,0
0.056,0,0,0,0.999984320040977,0.00559997073070906,-0,-0,0,0,0,0.2,0,0,0,0,0,0,0,0
0.057,0,0,0,0.999983755043983,0.00569996913454658,-0,-0,0,0,0,0.2,0,0,0,0,0,0,0,0
0.058,0,0,0,0.999983180047152,0.0057999674813844,-0,-0,0,0,0,0.2,0,0,0,0,0,0,0,0
0.059,0,0,0,0.999982595050489,0.00589996577022256,-0,-0,0,0,0,0.2,0,0,0,0,0,0,0,0
0.06,0,0,0,0.999982000054,0.00599996400006105,-0,-0,0,0,0,0.2,0,0,0,0,0,0,0,0
0.061,0,0,0,0.999981395057691,0.0060999621698999,-0,-0,0,0,0,0.2,0,0,0,0,0,0,0,0
0.062,0,0,0,0.999980780061568,0.00619996027873913,-0,-0,0,0,0,0.2,0,0,0,0,0,0,0,0
0.063,0,0,0,0.999980155065637,0.00629995832557876,-0,-0,0,0,0,0.2,0,0,0,0,0,0,0,0
0.064,0,0,0,0.999979520069905,0.00639995630941881,-0,-0,0,0,0,0.2,0,0,0,0,0,0,0,0
0.065,0,0,0,0.999978875074378,0.00649995422925929,-0,-0,0,0,0,0.2,0,0,0,0,0,0,0,0
0.066,0,0,0,0.999978220079061,0.00659995208410023,-0,-0,0,0,0,0.2,0,0,0,0,0,0,0,0
0.067,0,0,0,0.999977555083963,0.00669994987294165,-0,-0,0,0,0,0.2,0,0,0,0,0,0,0,0
0.068,0,0,0,0.999976880089089,0.00679994759478357,-0,-0,0,0,0,0.2,0,0,0,0,0,0,0,0
0.069,0,0,0,0.999976195094446,0.00689994524862602,-0,-0,0,0,0,0.2,0,0,0,0,0,0,0,0
0.07,0,0,0,0.999975500100042,0.00699994283346901,-0,-0,0,0,0,0.2,0,0,0,0,0,0,0,0
0.071,0,0,0,0.999974795105882,0.00709994034831258,-0,-0,0,0,0,0.2,0,0,0,0,0,0,0,0
0.072,0,0,0,0.999974080111974,0.00719993779215674,-0,-0,0,0,0,0.2,0,0,0,0,0,0,0,0
0.073,0,0,0,0.999973355118326,0.00729993516400152,-0,-0,0,0,0,0.2,0,0,0,0,0,0,0,0
0.074,0,0,0,0.999972620124944,0.00739993246284695,-0,-0,0,0,0,0.2,0,0,0,0,0,0,0,0
0.075,0,0,0,0.999971875131836,0.00749992968769306,-0,-0,0,0,0,0.2,0,0,0,0,0,0,0,0
0.076,0,0,0,0.999971120139009,0.00759992683753988,-0,-0,0,0,0,0.2,0,0,0,0,0,0,0,0
0.077,0,0,0,0.999970355146471,0.00769992391138742,-0,-0,0,0,0,0.2,0,0,0,0,0,0,0,0
0.078,0,0,0,0.999969580154229,0.00779992090823572,-0,-0,0,0,0,0.2,0,0,0,0,0,0,0,0
0.079,0,0,0,0.999968795162292,0.00789991782708482,-0,-0,0,0,0,0.2,0,0,0,0,0,0,0,0
0.08,0,0,0,0.999968000170666,0.00799991466693473,-0,-0,0,0,0,0.2,0,0,0,0,0,0,0,0
0.081,0,0,0,0.999967195179361,0.0080999114267855,-0,-0,0,0,0,0.2,0,0,0,0,0,0,0,0
0.082,0,0,0,0.999966380188384,0.00819990810563716,-0,-0,0,0,0,0.2,0,0,0,0,0,0,0,0
0.083,0,0,0,0.999965555197743,0.00829990470248973,-0,-0,0,0,0,0.2,0,0,0,0,0,0,0,0
0.084,0,0,0,0.999964720207446,0.00839990121634326,-0,-0,0,0,0,0.2,0,0,0,0,0,0,0,0
0.085,0,0,0,0.999963875217502,0.00849989764619777,-0,-0,0,0,0,0.2,0,0,0,0,0,0,0,0
0.086,0,0,0,0.999963020227919,0.00859989399105331,-0,-0,0,0,0,0.2,0,0,0,0,0,0,0,0
0.087,0,0,0,0.999962155238707,0.00869989024990991,-0,-0,0,0,0,0.2,0,0,0,0,0,0,0,0
0.088,0,0,0,0.999961280249873,0.00879988642176761,-0,-0,0,0,0,0.2,0,0,0,0,0,0,0,0
0.089,0,0,0,0.999960395261425,0.00889988250562644,-0,-0,0,0,0,0.2,0,0,0,0,0,0,0,0
0.09,0,0,0,0.999959500273374,0.00899987850048645,-0,-0,0,0,0,0.2,0,0,0,0,0,0,0,0
0.091,0,0,0,0.999958595285728,0.00909987440534767,-0,-0,0,0,0,0.2,0,0,0,0,0,0,0,0
0.092,0,0,0,0.999957680298496,0.00919987021921015,-0,-0,0,0,0,0.2,0,0,0,0,0,0,0,0
0.093,0,0,0,0.999956755311688,0.00929986594107393,-0,-0,0,0,0,0.2,0,0,0,0,0,0,0,0
0.094,0,0,0,0.999955820325311,0.00939986156993904,-0,-0,0,0,0,0.2,0,0,0,0,0,0,0,0
0.095,0,0,0,0.999954875339377,0.00949985710480554,-0,-0,0,0,0,0.2,0,0,0,0,0,0,0,0
0.096,0,0,0,0.999953920353894,0.00959985254467348,-0,-0,0,0,0,0.2,0,0,0,0,0,0,0,0
0.097,0,0,0,0.999952955368871,0.00969984788854288,-0,-0,0,0,0,0.2,0,0,0,0,0,0,0,0
0.098,0,0,0,0.999951980384319,0.00979984313541381,-0,-0,0,0,0,0.2,0,0,0,0,0,0,0,0
0.099,0,0,0,0.999950995400247,0.0098998382842863,-0,-0,0,0,0,0.2,0,0,0,0,0,0,0,0
0.1,0,0,0,0.999950000416665,0.00999983333416042,-0,-0,0,0,0,0.2,0,0,0,0,0,0,0,0
0.101,0,0,0,0.999948995433584,0.0100998282840362,-0,-0,0,0,0,0.2,0,0,0,0,0,0,0,0
0.102,0,0,0,0.999947980451012,0.0101998231329137,-0,-0,0,0,0,0.2,0,0,0,0,0,0,0,0
0.103,0,0,0,0.99994695546896,0.010299817879793,-0,-0,0,0,0,0.2,0,0,0,0,0,0,0,0
0.104,0,0,0,0.999945920487439,0.010399812523674,-0,-0,0,0,0,0.2,0,0,0,0,0,0,0,0
0.105,0,0,0,0.999944875506459,0.010499807063557,-0,-0,0,0,0,0.2,0,0,0,0,0,0,0,0
0.106,0,0,0,0.99994382052603,0.0105998014984419,-0,-0,0,0,0,0.2,0,0,0,0,0,0,0,0
0.107,0,0,0,0.999942755546163,0.0106997958273288,-0,-0,0,0,0,0.2,0,0,0,0,0,0,0,0
0.108,0,0,0,0.999941680566868,0.0107997900492177,-0,-0,0,0,0,0.2,0,0,0,0,0,0,0,0
0.109,0,0,0,0.999940595588157,0.0108997841631087,-0,-0,0,0,0,0.2,0,0,0,0,0,0,0,0
0.11,0,0,0,0.999939500610039,0.0109997781680019,-0,-0,0,0,0,0.2,0,0,0,0,0,0,0,0
0.111,0,0,0,0.999938395632527,0.0110997720628973,-0,-0,0,0,0,0.2,0,0,0,0,0,0,0,0
0.112,0,0,0,0.99993728065563,0.0111997658467949,-0,-0,0,0,0,0.2,0,0,0,0,0,0,0,0
0.113,0,0,0,0.999936155679361,0.011299759518695,-0,-0,0,0,0,0.2,0,0,0,0,0,0,0,0
0.114,0,0,0,0.99993502070373,0.0113997530775974,-0,-0,0,0,0,0.2,0,0,0,0,0,0,0,0
0.115,0,0,0,0.999933875728749,0.0114997465225023,-0,-0,0,0,0,0.2,0,0,0,0,0,0,0,0
0.116,0,0,0,0.99993272075443,0.0115997398524097,-0,-0,0,0,0,0.2,0,0,0,0,0,0,0,0
0.117,0,0,0,0.999931555780783,0.0116997330663197,-0,-0,0,0,0,0.2,0,0,0,0,0,0,0,0
0.118,0,0,0,0.99993038080782,0.0117997261632324,-0,-0,0,0,0,0.2,0,0,0,0,0,0,0,0
0.119,0,0,0,0.999929195835554,0.0118997191421479,-0,-0,0,0,0,0.2,0,0,0,0,0,0,0,0
0.12,0,0,0,0.999928000863996,0.0119997120020661,-0,-0,0,0,0,0.2,0,0,0,0,0,0,0,0
0.121,0,0,0,0.999926795893158,0.0120997047419872,-0,-0,0,0,0,0.2,0,0,0,0,0,0,0,0
0.122,0,0,0,0.999925580923052,0.0121996973609113,-0,-0,0,0,0,0.2,0,0,0,0,0,0,0,0
0.123,0,0,0,0.99992435595369,0.0122996898578384,-0,-0,0,0,0,0.2,0,0,0,0,0,0,0,0
0.124,0,0,0,0.999923120985084,0.0123996822317686,-0,-0,0,0,0,0.2,0,0,0,0,0,0,0,0
0.125,0,0,0,0.999921876017247,0.012499674481702,-0,-0,0,0,0,0.2,0,0,0,0,0,0,0,0
0.126,0,0,0,0.999920621050192,0.0125996666066386,-0,-0,0,0,0,0.2,0,0,0,0,0,0,0,0
0.127,0,0,0,0.99991935608393,0.0126996586055786,-0,-0,0,0,0,0.2,0,0,0,0,0,0,0,0
0.128,0,0,0,0.999918081118475,0.012799650477522,-0,-0,0,0,0,0.2,0,0,0,0,0,0,0,0
0.129,0,0,0,0.999916796153839,0.0128996422214688,-0,-0,0,0,0,0.2,0,0,0,0,0,0,0,0
0.13,0,0,0,0.999915501190035,0.0129996338364193,-0,-0,0,0,0,0.2,0,0,0,0,0,0,0,0
0.131,0,0,0,0.999914196227076,0.0130996253213734,-0,-0,0,0,0,0.2,0,0,0,0,0,0,0,0
0.132,0,0,0,0.999912881264975,0.0131996166753313,-0,-0,0,0,0,0.2,0,0,0,0,0,0,0,0
0.133,0,0,0,0.999911556303745,0.013299607897293,-0,-0,0,0,0,0.2,0,0,0,0,0,0,0,0
0.134,0,0,0,0.9999102213434,0.0133995989862586,-0,-0,0,0,0,0.2,0,0,0,0,0,0,0,0
0.135,0,0,0,0.999908876383953,0.0134995899412282,-0,-0,0,0,0,0.2,0,0,0,0,0,0,0,0
0.136,0,0,0,0.999907521425416,0.013599580761202,-0,-0,0,0,0,0.2,0,0,0,0,0,0,0,0
0.137,0,0,0,0.999906156467805,0.0136995714451799,-0,-0,0,0,0,0.2,0,0,0,0,0,0,0,0
0.138,0,0,0,0.999904781511132,0.0137995619921621,-0,-0,0,0,0,0.2,0,0,0,0,0,0,0,0
0.139,0,0,0,0.999903396555411,0.0138995524011487,-0,-0,0,0,0,0.2,0,0,0,0,0,0,0,0
0.14,0,0,0,0.999902001600656,0.0139995426711398,-0,-0,0,0,0,0.2,0,0,0,0,0,0,0,0
0.141,0,0,0,0.999900596646882,0.0140995328011354,-0,-0,0,0,0,0.2,0,0,0,0,0,0,0,0
0.142,0,0,0,0.999899181694101,0.0141995227901357,-0,-0,0,0,0,0.2,0,0,0,0,0,0,0,0
0.143,0,0,0,0.999897756742328,0.0142995126371408,-0,-0,0,0,0,0.2,0,0,0,0,0,0,0,0
0.144,0,0,0,0.999896321791578,0.0143995023411507,-0,-0,0,0,0,0.2,0,0,0,0,0,0,0,0
0.145,0,0,0,0.999894876841865,0.0144994919011657,-0,-0,0,0,0,0.2,0,0,0,0,0,0,0,0
0.146,0,0,0,0.999893421893203,0.0145994813161857,-0,-0,0,0,0,0.2,0,0,0,0,0,0,0,0
0.147,0,0,0,0.999891956945607,0.0146994705852109,-0,-0,0,0,0,0.2,0,0,0,0,0,0,0,0
0.148,0,0,0,0.999890481999091,0.0147994597072414,-0,-0,0,0,0,0.2,0,0,0,0,0,0,0,0
0.149,0,0,0,0.99988899705367,0.0148994486812773,-0,-0,0,0,0,0.2,0,0,0,0,0,0,0,0
0.15,0,0,0,0.999887502109359,0.0149994375063187,-0,-0,0,0,0,0.2,0,0,0,0,0,0,0,0
0.151,0,0,0,0.999885997166174,0.0150994261813657,-0,-0,0,0,0,0.2,0,0,0,0,0,0,0,0
0.152,0,0,0,0.999884482224128,0.0151994147054185,-0,-0,0,0,0,0.2,0,0,0,0,0,0,0,0
0.153,0,0,0,0.999882957283238,0.0152994030774772,-0,-0,0,0,0,0.2,0,0,0,0,0,0,0,0
0.154,0,0,0,0.999881422343518,0.0153993912965418,-0,-0,0,0,0,0.2,0,0,0,0,0,0,0,0
0.155,0,0,0,0.999879877404984,0.0154993793616124,-0,-0,0,0,0,0.2,0,0,0,0,0,0,0,0
0.156,0,0,0,0.999878322467651,0.0155993672716893,-0,-0,0,0,0,0.2,0,0,0,0,0,0,0,0
0.157,0,0,0,0.999876757531534,0.0156993550257726,-0,-0,0,0,0,0.2,0,0,0,0,0,0,0,0
0.158,0,0,0,0.999875182596651,0.0157993426228622,-0,-0,0,0,0,0.2,0,0,0,0,0,0,0,0
0.159,0,0,0,0.999873597663015,0.0158993300619585,-0,-0,0,0,0,0.2,0,0,0,0,0,0,0,0
0.16,0,0,0,0.999872002730644,0.0159993173420614,-0,-0,0,0,0,0.2,0,0,0,0,0,0,0,0
0.161,0,0,0,0.999870397799552,0.0160993044621712,-0,-0,0,0,0,0.2,0,0,0,0,0,0,0,0
0.162,0,0,0,0.999868782869756,0.0161992914212879,-0,-0,0,0,0,0.2,0,0,0,0,0,0,0,0
0.163,0,0,0,0.999867157941273,0.0162992782184117,-0,-0,0,0,0,0.2,0,0,0,0,0,0,0,0
0.164,0,0,0,0.999865523014118,0.0163992648525427,-0,-0,0,0,0,0.2,0,0,0,0,0,0,0,0
0.165,0,0,0,0.999863878088308,0.0164992513226811,-0,-0,0,0,0,0.2,0,0,0,0,0,0,0,0
0.166,0,0,0,0.999862223163859,0.016599237627827,-0,-0,0,0,0,0.2,0,0,0,0,0,0,0,0
0.167,0,0,0,0.999860558240788,0.0166992237669805,-0,-0,0,0,0,0.2,0,0,0,0,0,0,0,0
0.168,0,0,0,0.999858883319111,0.0167992097391417,-0,-0,0,0,0,0.2,0,0,0,0,0,0,0,0
0.169,0,0,0,0.999857198398846,0.0168991955433109,-0,-0,0,0,0,0.2,0,0,0,0,0,0,0,0
0.17,0,0,0,0.999855503480008,0.0169991811784881,-0,-0,0,0,0,0.2,0,0,0,0,0,0,0,0
0.171,0,0,0,0.999853798562616,0.0170991666436735,-0,-0,0,0,0,0.2,0,0,0,0,0,0,0,0
0.172,0,0,0,0.999852083646685,0.0171991519378672,-0,-0,0,0,0,0.2,0,0,0,0,0,0,0,0
0.173,0,0,0,0.999850358732234,0.0172991370600694,-0,-0,0,0,0,0.2,0,0,0,0,0,0,0,0
0.174,0,0,0,0.999848623819279,0.0173991220092802,-0,-0,0,0,0,0.2,0,0,0,0,0,0,0,0
0.175,0,0,0,0.999846878907838,0.0174991067844999,-0,-0,0,0,0,0.2,0,0,0,0,0,0,0,0
0.176,0,0,0,0.999845123997928,0.0175990913847284,-0,-0,0,0,0,0.2,0,0,0,0,0,0,0,0
0.177,0,0,0,0.999843359089567,0.017699075808966,-0,-0,0,0,0,0.2,0,0,0,0,0,0,0,0
0.178,0,0,0,0.999841584182772,0.0177990600562129,-0,-0,0,0,0,0.2,0,0,0,0,0,0,0,0
0.179,0,0,0,0.999839799277562,0.0178990441254692,-0,-0,0,0,0,0.2,0,0,0,0,0,0,0,0
0.18,0,0,0,0.999838004373953,0.017999028015735,-0,-0,0,0,0,0.2,0,0,0,0,0,0,0,0
0.181,0,0,0,0.999836199471964,0.0180990117260106,-0,-0,0,0,0,0.2,0,0,0,0,0,0,0,0
0.182,0,0,0,0.999834384571614,0.018198995255296,-0,-0,0,0,0,0.2,0,0,0,0,0,0,0,0
0.183,0,0,0,0.999832559672919,0.0182989786025915,-0,-0,0,0,0,0.2,0,0,0,0,0,0,0,0
0.184,0,0,0,0.999830724775899,0.0183989617668972,-0,-0,0,0,0,0.2,0,0,0,0,0,0,0,0
0.185,0,0,0,0.999828879880572,0.0184989447472133,-0,-0,0,0,0,0.2,0,0,0,0,0,0,0,0
0.186,0,0,0,0.999827024986956,0.0185989275425399,-0,-0,0,0,0,0.2,0,0,0,0,0,0,0,0
0.187,0,0,0,0.99982516009507,0.0186989101518773,-0,-0,0,0,0,0.2,0,0,0,0,0,0,0,0
0.188,0,0,0,0.999823285204932,0.0187988925742255,-0,-0,0,0,0,0.2,0,0,0,0,0,0,0,0
0.189,0,0,0,0.999821400316561,0.0188988748085849,-0,-0,0,0,0,0.2,0,0,0,0,0,0,0,0
0.19,0,0,0,0.999819505429976,0.0189988568539554,-0,-0,0,0,0,0.2,0,0,0,0,0,0,0,0
0.191,0,0,0,0.999817600545197,0.0190988387093374,-0,-0,0,0,0,0.2,0,0,0,0,0,0,0,0
0.192,0,0,0,0.999815685662241,0.0191988203737311,-0,-0,0,0,0,0.2,0,0,0,0,0,0,0,0
0.193,0,0,0,0.999813760781128,0.0192988018461365,-0,-0,0,0,0,0.2,0,0,0,0,0,0,0,0
0.194,0,0,0,0.999811825901878,0.0193987831255539,-0,-0,0,0,0,0.2,0,0,0,0,0,0,0,0
0.195,0,0,0,0.99980988102451,0.0194987642109835,-0,-0,0,0,0,0.2,0,0,0,0,0,0,0,0
0.196,0,0,0,0.999807926149043,0.0195987451014254,-0,-0,0,0,0,0.2,0,0,0,0,0,0,0,0
0.197,0,0,0,0.999805961275496,0.0196987257958799,-0,-0,0,0,0,0.2,0,0,0,0,0,0,0,0
0.198,0,0,0,0.99980398640389,0.0197987062933471,-0,-0,0,0,0,0.2,0,0,0,0,0,0,0,0
0.199,0,0,0,0.999802001534244,0.0198986865928273,-0,-0,0,0,0,0.2,0,0,0,0,0,0,0,0
0.2,0,0,0,0.999800006666578,0.0199986666933206,-0,-0,0,0,0,0.2,0,0,0,0,0,0,0,0
0.201,0,0,0,0.999798001800912,0.0200986465938272,-0,-0,0,0,0,0.2,0,0,0,0,0,0,0,0
0.202,0,0,0,0.999795986937266,0.0201986262933474,-0,-0,0,0,0,0.2,0,0,0,0,0,0,0,0
0.203,0,0,0,0.99979396207566,0.0202986057908813,-0,-0,0,0,0,0.2,0,0,0,0,0,0,0,0
0.204,0,0,0,0.999791927216115,0.0203985850854291,-0,-0,0,0,0,0.2,0,0,0,0,0,0,0,0
0.205,0,0,0,0.99978988235865,0.0204985641759911,-0,-0,0,0,0,0.2,0,0,0,0,0,0,0,0
0.206,0,0,0,0.999787827503286,0.0205985430615675,-0,-0,0,0,0,0.2,0,0,0,0,0,0,0,0
0.207,0,0,0,0.999785762650044,0.0206985217411584,-0,-0,0,0,0,0.2,0,0,0,0,0,0,0,0
0.208,0,0,0,0.999783687798945,0.0207985002137641,-0,-0,0,0,0,0.2,0,0,0,0,0,0,0,0
0.209,0,0,0,0.999781602950009,0.0208984784783848,-0,-0,0,0,0,0.2,0,0,0,0,0,0,0,0
0.21,0,0,0,0.999779508103256,0.0209984565340207,-0,-0,0,0,0,0.2,0,0,0,0,0,0,0,0
0.211,0,0,0,0.999777403258709,0.021098434379672,-0,-0,0,0,0,0.2,0,0,0,0,0,0,0,0
0.212,0,0,0,0.999775288416387,0.0211984120143391,-0,-0,0,0,0,0.2,0,0,0,0,0,0,0,0
0.213,0,0,0,0.999773163576313,0.0212983894370219,-0,-0,0,0,0,0.2,0,0,0,0,0,0,0,0
0.214,0,0,0,0.999771028738507,0.0213983666467209,-0,-0,0,0,0,0.2,0,0,0,0,0,0,0,0
0.215,0,0,0,0.999768883902991,0.0214983436424363,-0,-0,0,0,0,0.2,0,0,0,0,0,0,0,0
0.216,0,0,0,0.999766729069786,0.0215983204231681,-0,-0,0,0,0,0.2,0,0,0,0,0,0,0,0
0.217,0,0,0,0.999764564238913,0.0216982969879168,-0,-0,0,0,0,0.2,0,0,0,0,0,0,0,0
0.218,0,0,0,0.999762389410395,0.0217982733356826,-0,-0,0,0,0,0.2,0,0,0,0,0,0,0,0
0.219,0,0,0,0.999760204584253,0.0218982494654655,-0,-0,0,0,0,0.2,0,0,0,0,0,0,0,0
0.22,0,0,0,0.999758009760509,0.021998225376266,-0,-0,0,0,0,0.2,0,0,0,0,0,0,0,0
0.221,0,0,0,0.999755804939185,0.0220982010670843,-0,-0,0,0,0,0.2,0,0,0,0,0,0,0,0
0.222,0,0,0,0.999753590120304,0.0221981765369205,-0,-0,0,0,0,0.2,0,0,0,0,0,0,0,0
0.223,0,0,0,0.999751365303886,0.0222981517847749,-0,-0,0,0,0,0.2,0,0,0,0,0,0,0,0
0.224,0,0,0,0.999749130489954,0.0223981268096479,-0,-0,0,0,0,0.2,0,0,0,0,0,0,0,0
0.225,0,0,0,0.999746885678531,0.0224981016105396,-0,-0,0,0,0,0.2,0,0,0,0,0,0,0,0
0.226,0,0,0,0.999744630869639,0.0225980761864502,-0,-0,0,0,0,0.2,0,0,0,0,0,0,0,0
0.227,0,0,0,0.999742366063301,0.0226980505363801,-0,-0,0,0,0,0.2,0,0,0,0,0,0,0,0
0.228,0,0,0,0.99974009125954,0.0227980246593295,-0,-0,0,0,0,0.2,0,0,0,0,0,0,0,0
0.229,0,0,0,0.999737806458377,0.0228979985542986,-0,-0,0,0,0,0.2,0,0,0,0,0,0,0,0
0.23,0,0,0,0.999735511659836,0.0229979722202878,-0,-0,0,0,0,0.2,0,0,0,0,0,0,0,0
0.231,0,0,0,0.999733206863941,0.0230979456562972,-0,-0,0,0,0,0.2,0,0,0,0,0,0,0,0
0.232,0,0,0,0.999730892070713,0.0231979188613272,-0,-0,0,0,0,0.2,0,0,0,0,0,0,0,0
0.233,0,0,0,0.999728567280176,0.023297891834378,-0,-0,0,0,0,0.2,0,0,0,0,0,0,0,0
0.234,0,0,0,0.999726232492354,0.0233978645744499,-0,-0,0,0,0,0.2,0,0,0,0,0,0,0,0
0.235,0,0,0,0.999723887707269,0.0234978370805431,-0,-0,0,0,0,0.2,0,0,0,0,0,0,0,0
0.236,0,0,0,0.999721532924945,0.023597809351658,-0,-0,0,0,0,0.2,0,0,0,0,0,0,0,0
0.237,0,0,0,0.999719168145407,0.0236977813867948,-0,-0,0,0,0,0.2,0,0,0,0,0,0,0,0
0.238,0,0,0,0.999716793368676,0.0237977531849537,-0,-0,0,0,0,0.2,0,0,0,0,0,0,0,0
0.239,0,0,0,0.999714408594778,0.0238977247451351,-0,-0,0,0,0,0.2,0,0,0,0,0,0,0,0
0.24,0,0,0,0.999712013823735,0.0239976960663393,-0,-0,0,0,0,0.2,0,0,0,0,0,0,0,0
0.241,0,0,0,0.999709609055572,0.0240976671475665,-0,-0,0,0,0,0.2,0,0,0,0,0,0,0,0
0.242,0,0,0,0.999707194290314,0.024197637987817,-0,-0,0,0,0,0.2,0,0,0,0,0,0,0,0
0.243,0,0,0,0.999704769527983,0.0242976085860912,-0,-0,0,0,0,0.2,0,0,0,0,0,0,0,0
0.244,0,0,0,0.999702334768604,0.0243975789413893,-0,-0,0,0,0,0.2,0,0,0,0,0,0,0,0
0.245,0,0,0,0.999699890012203,0.0244975490527116,-0,-0,0,0,0,0.2,0,0,0,0,0,0,0,0
0.246,0,0,0,0.999697435258802,0.0245975189190584,-0,-0,0,0,0,0.2,0,0,0,0,0,0,0,0
0.247,0,0,0,0.999694970508427,0.02469748853943,-0,-0,0,0,0,0.2,0,0,0,0,0,0,0,0
0.248,0,0,0,0.999692495761102,0.0247974579128267,-0,-0,0,0,0,0.2,0,0,0,0,0,0,0,0
0.249,0,0,0,0.999690011016853,0.0248974270382488,-0,-0,0,0,0,0.2,0,0,0,0,0,0,0,0
0.25,0,0,0,0.999687516275703,0.0249973959146967,-0,-0,0,0,0,0.2,0,0,0,0,0,0,0,0
0.251,0,0,0,0.999685011537678,0.0250973645411706,-0,-0,0,0,0,0.2,0,0,0,0,0,0,0,0
0.252,0,0,0,0.999682496802803,0.0251973329166709,-0,-0,0,0,0,0.2,0,0,0,0,0,0,0,0
0.253,0,0,0,0.999679972071103,0.0252973010401978,-0,-0,0,0,0,0.2,0,0,0,0,0,0,0,0
0.254,0,0,0,0.999677437342604,0.0253972689107518,-0,-0,0,0,0,0.2,0,0,0,0,0,0,0,0
0.255,0,0,0,0.99967489261733,0.025497236527333,-0,-0,0,0,0,0.2,0,0,0,0,0,0,0,0
0.256,0,0,0,0.999672337895307,0.0255972038889419,-0,-0,0,0,0,0.2,0,0,0,0,0,0,0,0
0.257,0,0,0,0.99966977317656,0.0256971709945787,-0,-0,0,0,0,0.2,0,0,0,0,0,0,0,0
0.258,0,0,0,0.999667198461116,0.0257971378432438,-0,-0,0,0,0,0.2,0,0,0,0,0,0,0,0
0.259,0,0,0,0.999664613749,0.0258971044339376,-0,-0,0,0,0,0.2,0,0,0,0,0,0,0,0
0.26,0,0,0,0.999662019040238,0.0259970707656603,-0,-0,0,0,0,0.2,0,0,0,0,0,0,0,0
0.261,0,0,0,0.999659414334856,0.0260970368374123,-0,-0,0,0,0,0.2,0,0,0,0,0,0,0,0
0.262,0,0,0,0.999656799632879,0.0261970026481939,-0,-0,0,0,0,0.2,0,0,0,0,0,0,0,0
0.263,0,0,0,0.999654174934335,0.0262969681970055,-0,-0,0,0,0,0.2,0,0,0,0,0,0,0,0
0.264,0,0,0,0.999651540239249,0.0263969334828475,-0,-0,0,0,0,0.2,0,0,0,0,0,0,0,0
0.265,0,0,0,0.999648895547647,0.02649689850472,-0,-0,0,0,0,0.2,0,0,0,0,0,0,0,0
0.266,0,0,0,0.999646240859557,0.0265968632616236,-0,-0,0,0,0,0.2,0,0,0,0,0,0,0,0
0.267,0,0,0,0.999643576175004,0.0266968277525586,-0,-0,0,0,0,0.2,0,0,0,0,0,0,0,0
0.268,0,0,0,0.999640901494015,0.0267967919765253,-0,-0,0,0,0,0.2,0,0,0,0,0,0,0,0
0.269,0,0,0,0.999638216816617,0.0268967559325241,-0,-0,0,0,0,0.2,0,0,0,0,0,0,0,0
0.27,0,0,0,0.999635522142837,0.0269967196195553,-0,-0,0,0,0,0.2,0,0,0,0,0,0,0,0
0.271,0,0,0,0.999632817472702,0.0270966830366193,-0,-0,0,0,0,0.2,0,0,0,0,0,0,0,0
0.272,0,0,0,0.999630102806239,0.0271966461827165,-0,-0,0,0,0,0.2,0,0,0,0,0,0,0,0
0.273,0,0,0,0.999627378143475,0.0272966090568472,-0,-0,0,0,0,0.2,0,0,0,0,0,0,0,0
0.274,0,0,0,0.999624643484437,0.0273965716580118,-0,-0,0,0,0,0.2,0,0,0,0,0,0,0,0
0.275,0,0,0,0.999621898829152,0.0274965339852108,-0,-0,0,0,0,0.2,0,0,0,0,0,0,0,0
0.276,0,0,0,0.999619144177649,0.0275964960374443,-0,-0,0,0,0,0.2,0,0,0,0,0,0,0,0
0.277,0,0,0,0.999616379529954,0.027696457813713,-0,-0,0,0,0,0.2,0,0,0,0,0,0,0,0
0.278,0,0,0,0.999613604886096,0.027796419313017,-0,-0,0,0,0,0.2,0,0,0,0,0,0,0,0
0.279,0,0,0,0.999610820246101,0.0278963805343569,-0,-0,0,0,0,0.2,0,0,0,0,0,0,0,0
0.28,0,0,0,0.999608025609998,0.0279963414767329,-0,-0,0,0,0,0.2,0,0,0,0,0,0,0,0
0.281,0,0,0,0.999605220977815,0.0280963021391455,-0,-0,0,0,0,0.2,0,0,0,0,0,0,0,0
0.282,0,0,0,0.99960240634958,0.0281962625205951,-0,-0,0,0,0,0.2,0,0,0,0,0,0,0,0
0.283,0,0,0,0.99959958172532,0.0282962226200821,-0,-0,0,0,0,0.2,0,0,0,0,0,0,0,0
0.284,0,0,0,0.999596747105065,0.0283961824366069,-0,-0,0,0,0,0.2,0,0,0,0,0,0,0,0
0.285,0,0,0,0.999593902488842,0.0284961419691698,-0,-0,0,0,0,0.2,0,0,0,0,0,0,0,0
0.286,0,0,0,0.999591047876681,0.0285961012167713,-0,-0,0,0,0,0.2,0,0,0,0,0,0,0,0
0.287,0,0,0,0.999588183268608,0.0286960601784118,-0,-0,0,0,0,0.2,0,0,0,0,0,0,0,0
0.288,0,0,0,0.999585308664654,0.0287960188530917,-0,-0,0,0,0,0.2,0,0,0,0,0,0,0,0
0.289,0,0,0,0.999582424064847,0.0288959772398114,-0,-0,0,0,0,0.2,0,0,0,0,0,0,0,0
0.29,0,0,0,0.999579529469216,0.0289959353375714,-0,-0,0,0,0,0.2,0,0,0,0,0,0,0,0
0.291,0,0,0,0.999576624877789,0.029095893145372,-0,-0,0,0,0,0.2,0,0,0,0,0,0,0,0
0.292,0,0,0,0.999573710290597,0.0291958506622136,-0,-0,0,0,0,0.2,0,0,0,0,0,0,0,0
0.293,0,0,0,0.999570785707667,0.0292958078870968,-0,-0,0,0,0,0.2,0,0,0,0,0,0,0,0
0.294,0,0,0,0.999567851129029,0.0293957648190218,-0,-0,0,0,0,0.2,0,0,0,0,0,0,0,0
0.295,0,0,0,0.999564906554713,0.0294957214569893,-0,-0,0,0,0,0.2,0,0,0,0,0,0,0,0
0.296,0,0,0,0.999561951984748,0.0295956777999995,-0,-0,0,0,0,0.2,0,0,0,0,0,0,0,0
0.297,0,0,0,0.999558987419163,0.0296956338470529,-0,-0,0,0,0,0.2,0,0,0,0,0,0,0,0
0.298,0,0,0,0.999556012857988,0.02979558959715,-0,-0,0,0,0,0.2,0,0,0,0,0,0,0,0
0.299,0,0,0,0.999553028301253,0.0298955450492912,-0,-0,0,0,0,0.2,0,0,0,0,0,0,0,0
0.3,0,0,0,0.999550033748988,0.0299955002024769,-0,-0,0,0,0,0.2,0,0,0,0,0,0,0,0
0.301,0,0,0,0.999547029201223,0.0300954550557077,-0,-0,0,0,0,0.2,0,0,0,0,0,0,0,0
0.302,0,0,0,0.999544014657987,0.0301954096079839,-0,-0,0,0,0,0.2,0,0,0,0,0,0,0,0
0.303,0,0,0,0.999540990119311,0.030295363858306,-0,-0,0,0,0,0.2,0,0,0,0,0,0,0,0
0.304,0,0,0,0.999537955585226,0.0303953178056744,-0,-0,0,0,0,0.2,0,0,0,0,0,0,0,0
0.305,0,0,0,0.99953491105576,0.0304952714490897,-0,-0,0,0,0,0.2,0,0,0,0,0,0,0,0
0.306,0,0,0,0.999531856530946,0.0305952247875523,-0,-0,0,0,0,0.2,0,0,0,0,0,0,0,0
0.307,0,0,0,0.999528792010813,0.0306951778200626,-0,-0,0,0,0,0.2,0,0,0,0,0,0,0,0
0.308,0,0,0,0.999525717495392,0.0307951305456211,-0,-0,0,0,0,0.2,0,0,0,0,0,0,0,0
0.309,0,0,0,0.999522632984714,0.0308950829632284,-0,-0,0,0,0,0.2,0,0,0,0,0,0,0,0
0.31,0,0,0,0.99951953847881,0.0309950350718848,-0,-0,0,0,0,0.2,0,0,0,0,0,0,0,0
0.311,0,0,0,0.99951643397771,0.0310949868705908,-0,-0,0,0,0,0.2,0,0,0,0,0,0,0,0
0.312,0,0,0,0.999513319481446,0.031194938358347,-0,-0,0,0,0,0.2,0,0,0,0,0,0,0,0
0.313,0,0,0,0.999510194990049,0.0312948895341538,-0,-0,0,0,0,0.2,0,0,0,0,0,0,0,0
0.314,0,0,0,0.99950706050355,0.0313948403970117,-0,-0,0,0,0,0.2,0,0,0,0,0,0,0,0
0.315,0,0,0,0.99950391602198,0.0314947909459212,-0,-0,0,0,0,0.2,0,0,0,0,0,0,0,0
0.316,0,0,0,0.999500761545371,0.0315947411798828,-0,-0,0,0,0,0.2,0,0,0,0,0,0,0,0
0.317,0,0,0,0.999497597073754,0.031694691097897,-0,-0,0,0,0,0.2,0,0,0,0,0,0,0,0
0.318,0,0,0,0.999494422607162,0.0317946406989643,-0,-0,0,0,0,0.2,0,0,0,0,0,0,0,0
0.319,0,0,0,0.999491238145625,0.0318945899820852,-0,-0,0,0,0,0.2,0,0,0,0,0,0,0,0
0.32,0,0,0,0.999488043689176,0.0319945389462601,-0,-0,0,0,0,0.2,0,0,0,0,0,0,0,0
0.321,0,0,0,0.999484839237847,0.0320944875904897,-0,-0,0,0,0,0.2,0,0,0,0,0,0,0,0
0.322,0,0,0,0.999481624791669,0.0321944359137744,-0,-0,0,0,0,0.2,0,0,0,0,0,0,0,0
0.323,0,0,0,0.999478400350675,0.0322943839151147,-0,-0,0,0,0,0.2,0,0,0,0,0,0,0,0
0.324,0,0,0,0.999475165914896,0.0323943315935113,-0,-0,0,0,0,0.2,0,0,0,0,0,0,0,0
0.325,0,0,0,0.999471921484367,0.0324942789479644,-0,-0,0,0,0,0.2,0,0,0,0,0,0,0,0
0.326,0,0,0,0.999468667059118,0.0325942259774748,-0,-0,0,0,0,0.2,0,0,0,0,0,0,0,0
0.327,0,0,0,0.999465402639182,0.032694172681043,-0,-0,0,0,0,0.2,0,0,0,0,0,0,0,0
0.328,0,0,0,0.999462128224592,0.0327941190576694,-0,-0,0,0,0,0.2,0,0,0,0,0,0,0,0
0.329,0,0,0,0.999458843815381,0.0328940651063546,-0,-0,0,0,0,0.2,0,0,0,0,0,0,0,0
0.33,0,0,0,0.999455549411582,0.0329940108260992,-0,-0,0,0,0,0.2,0,0,0,0,0,0,0,0
0.331,0,0,0,0.999452245013227,0.0330939562159037,-0,-0,0,0,0,0.2,0,0,0,0,0,0,0,0
0.332,0,0,0,0.99944893062035,0.0331939012747686,-0,-0,0,0,0,0.2,0,0,0,0,0,0,0,0
0.333,0,0,0,0.999445606232983,0.0332938460016945,-0,-0,0,0,0,0.2,0,0,0,0,0,0,0,0
0.334,0,0,0,0.999442271851161,0.0333937903956819,-0,-0,0,0,0,0.2,0,0,0,0,0,0,0,0
0.335,0,0,0,0.999438927474915,0.0334937344557314,-0,-0,0,0,0,0.2,0,0,0,0,0,0,0,0
0.336,0,0,0,0.999435573104281,0.0335936781808436,-0,-0,0,0,0,0.2,0,0,0,0,0,0,0,0
0.337,0,0,0,0.99943220873929,0.033693621570019,-0,-0,0,0,0,0.2,0,0,0,0,0,0,0,0
0.338,0,0,0,0.999428834379978,0.0337935646222582,-0,-0,0,0,0,0.2,0,0,0,0,0,0,0,0
0.339,0,0,0,0.999425450026377,0.0338935073365617,-0,-0,0,0,0,0.2,0,0,0,0,0,0,0,0
0.34,0,0,0,0.999422055678522,0.0339934497119302,-0,-0,0,0,0,0.2,0,0,0,0,0,0,0,0
0.341,0,0,0,0.999418651336446,0.0340933917473642,-0,-0,0,0,0,0.2,0,0,0,0,0,0,0,0
0.342,0,0,0,0.999415237000184,0.0341933334418642,-0,-0,0,0,0,0.2,0,0,0,0,0,0,0,0
0.343,0,0,0,0.999411812669769,0.0342932747944309,-0,-0,0,0,0,0.2,0,0,0,0,0,0,0,0
0.344,0,0,0,0.999408378345236,0.0343932158040649,-0,-0,0,0,0,0.2,0,0,0,0,0,0,0,0
0.345,0,0,0,0.99940493402662,0.0344931564697667,-0,-0,0,0,0,0.2,0,0,0,0,0,0,0,0
0.346,0,0,0,0.999401479713954,0.034593096790537,-0,-0,0,0,0,0.2,0,0,0,0,0,0,0,0
0.347,0,0,0,0.999398015407273,0.0346930367653763,-0,-0,0,0,0,0.2,0,0,0,0,0,0,0,0
0.348,0,0,0,0.999394541106612,0.0347929763932852,-0,-0,0,0,0,0.2,0,0,0,0,0,0,0,0
0.349,0,0,0,0.999391056812006,0.0348929156732643,-0,-0,0,0,0,0.2,0,0,0,0,0,0,0,0
0.35,0,0,0,0.999387562523489,0.0349928546043143,-0,-0,0,0,0,0.2,0,0,0,0,0,0,0,0
0.351,0,0,0,0.999384058241097,0.0350927931854358,-0,-0,0,0,0,0.2,0,0,0,0,0,0,0,0
0.352,0,0,0,0.999380543964864,0.0351927314156293,-0,-0,0,0,0,0.2,0,0,0,0,0,0,0,0
0.353,0,0,0,0.999377019694826,0.0352926692938955,-0,-0,0,0,0,0.2,0,0,0,0,0,0,0,0
0.354,0,0,0,0.999373485431017,0.035392606819235,-0,-0,0,0,0,0.2,0,0,0,0,0,0,0,0
0.355,0,0,0,0.999369941173473,0.0354925439906484,-0,-0,0,0,0,0.2,0,0,0,0,0,0,0,0
0.356,0,0,0,0.999366386922231,0.0355924808071364,-0,-0,0,0,0,0.2,0,0,0,0,0,0,0,0
0.357,0,0,0,0.999362822677324,0.0356924172676996,-0,-0,0,0,0,0.2,0,0,0,0,0,0,0,0
0.358,0,0,0,0.999359248438789,0.0357923533713387,-0,-0,0,0,0,0.2,0,0,0,0,0,0,0,0
0.359,0,0,0,0.999355664206662,0.0358922891170541,-0,-0,0,0,0,0.2,0,0,0,0,0,0,0,0
0.36,0,0,0,0.999352069980978,0.0359922245038467,-0,-0,0,0,0,0.2,0,0,0,0,0,0,0,0
0.361,0,0,0,0.999348465761773,0.0360921595307171,-0,-0,0,0,0,0.2,0,0,0,0,0,0,0,0
0.362,0,0,0,0.999344851549083,0.0361920941966659,-0,-0,0,0,0,0.2,0,0,0,0,0,0,0,0
0.363,0,0,0,0.999341227342946,0.0362920285006937,-0,-0,0,0,0,0.2,0,0,0,0,0,0,0,0
0.364,0,0,0,0.999337593143396,0.0363919624418012,-0,-0,0,0,0,0.2,0,0,0,0,0,0,0,0
0.365,0,0,0,0.999333948950469,0.0364918960189891,-0,-0,0,0,0,0.2,0,0,0,0,0,0,0,0
0.366,0,0,0,0.999330294764204,0.0365918292312581,-0,-0,0,0,0,0.2,0,0,0,0,0,0,0,0
0.367,0,0,0,0.999326630584635,0.0366917620776087,-0,-0,0,0,0,0.2,0,0,0,0,0,0,0,0
0.368,0,0,0,0.999322956411801,0.0367916945570417,-0,-0,0,0,0,0.2,0,0,0,0,0,0,0,0
0.369,0,0,0,0.999319272245736,0.0368916266685578,-0,-0,0,0,0,0.2,0,0,0,0,0,0,0,0
0.37,0,0,0,0.999315578086479,0.0369915584111577,-0,-0,0,0,0,0.2,0,0,0,0,0,0,0,0
0.371,0,0,0,0.999311873934066,0.0370914897838419,-0,-0,0,0,0,0.2,0,0,0,0,0,0,0,0
0.372,0,0,0,0.999308159788535,0.0371914207856112,-0,-0,0,0,0,0.2,0,0,0,0,0,0,0,0
0.373,0,0,0,0.999304435649922,0.0372913514154664,-0,-0,0,0,0,0.2,0,0,0,0,0,0,0,0
0.374,0,0,0,0.999300701518264,0.037391281672408,-0,-0,0,0,0,0.2,0,0,0,0,0,0,0,0
0.375,0,0,0,0.9992969573936,0.0374912115554368,-0,-0,0,0,0,0.2,0,0,0,0,0,0,0,0
0.376,0,0,0,0.999293203275965,0.0375911410635535,-0,-0,0,0,0,0.2,0,0,0,0,0,0,0,0
0.377,0,0,0,0.999289439165399,0.0376910701957588,-0,-0,0,0,0,0.2,0,0,0,0,0,0,0,0
0.378,0,0,0,0.999285665061939,0.0377909989510534,-0,-0,0,0,0,0.2,0,0,0,0,0,0,0,0
0.379,0,0,0,0.999281880965622,0.0378909273284379,-0,-0,0,0,0,0.2,0,0,0,0,0,0,0,0
0.38,0,0,0,0.999278086876486,0.0379908553269133,-0,-0,0,0,0,0.2,0,0,0,0,0,0,0,0
0.381,0,0,0,0.999274282794569,0.03809078294548,-0,-0,0,0,0,0.2,0,0,0,0,0,0,0,0
0.382,0,0,0,0.999270468719909,0.038190710183139,-0,-0,0,0,0,0.2,0,0,0,0,0,0,0,0
0.383,0,0,0,0.999266644652545,0.0382906370388908,-0,-0,0,0,0,0.2,0,0,0,0,0,0,0,0
0.384,0,0,0,0.999262810592514,0.0383905635117363,-0,-0,0,0,0,0.2,0,0,0,0,0,0,0,0
0.385,0,0,0,0.999258966539856,0.0384904896006761,-0,-0,0,0,0,0.2,0,0,0,0,0,0,0,0
0.386,0,0,0,0.999255112494607,0.038590415304711,-0,-0,0,0,0,0.2,0,0,0,0,0,0,0,0
0.387,0,0,0,0.999251248456808,0.0386903406228418,-0,-0,0,0,0,0.2,0,0,0,0,0,0,0,0
0.388,0,0,0,0.999247374426496,0.0387902655540692,-0,-0,0,0,0,0.2,0,0,0,0,0,0,0,0
0.389,0,0,0,0.99924349040371,0.0388901900973939,-0,-0,0,0,0,0.2,0,0,0,0,0,0,0,0
0.39,0,0,0,0.999239596388489,0.0389901142518167,-0,-0,0,0,0,0.2,0,0,0,0,0,0,0,0
0.391,0,0,0,0.999235692380872,0.0390900380163384,-0,-0,0,0,0,0.2,0,0,0,0,0,0,0,0
0.392,0,0,0,0.999231778380899,0.0391899613899597,-0,-0,0,0,0,0.2,0,0,0,0,0,0,0,0
0.393,0,0,0,0.999227854388607,0.0392898843716814,-0,-0,0,0,0,0.2,0,0,0,0,0,0,0,0
0.394,0,0,0,0.999223920404037,0.0393898069605042,-0,-0,0,0,0,0.2,0,0,0,0,0,0,0,0
0.395,0,0,0,0.999219976427228,0.039489729155429,-0,-0,0,0,0,0.2,0,0,0,0,0,0,0,0
0.396,0,0,0,0.99921602245822,0.0395896509554565,-0,-0,0,0,0,0.2,0,0,0,0,0,0,0,0
0.397,0,0,0,0.999212058497051,0.0396895723595874,-0,-0,0,0,0,0.2,0,0,0,0,0,0,0,0
0.398,0,0,0,0.999208084543761,0.0397894933668227,-0,-0,0,0,0,0.2,0,0,0,0,0,0,0,0
0.399,0,0,0,0.99920410059839,0.039889413976163,-0,-0,0,0,0,0.2,0,0,0,0,0,0,0,0
0.4,0,0,0,0.999200106660979,0.0399893341866091,-0,-0,0,0,0,0.2,0,0,0,0,0,0,0,0
0.401,0,0,0,0.999196102731566,0.040089253997162,-0,-0,0,0,0,0.2,0,0,0,0,0,0,0,0
0.402,0,0,0,0.999192088810193,0.0401891734068223,-0,-0,0,0,0,0.2,0,0,0,0,0,0,0,0
0.403,0,0,0,0.999188064896898,0.0402890924145908,-0,-0,0,0,0,0.2,0,0,0,0,0,0,0,0
0.404,0,0,0,0.999184030991723,0.0403890110194685,-0,-0,0,0,0,0.2,0,0,0,0,0,0,0,0
0.405,0,0,0,0.999179987094708,0.040488929220456,-0,-0,0,0,0,0.2,0,0,0,0,0,0,0,0
0.406,0,0,0,0.999175933205893,0.0405888470165542,-0,-0,0,0,0,0.2,0,0,0,0,0,0,0,0
0.407,0,0,0,0.999171869325318,0.040688764406764,-0,-0,0,0,0,0.2,0,0,0,0,0,0,0,0
0.408,0,0,0,0.999167795453025,0.0407886813900861,-0,-0,0,0,0,0.2,0,0,0,0,0,0,0,0
0.409,0,0,0,0.999163711589054,0.0408885979655214,-0,-0,0,0,0,0.2,0,0,0,0,0,0,0,0
0.41,0,0,0,0.999159617733446,0.0409885141320707,-0,-0,0,0,0,0.2,0,0,0,0,0,0,0,0
0.411,0,0,0,0.999155513886241,0.0410884298887349,-0,-0,0,0,0,0.2,0,0,0,0,0,0,0,0
0.412,0,0,0,0.999151400047482,0.0411883452345148,-0,-0,0,0,0,0.2,0,0,0,0,0,0,0,0
0.413,0,0,0,0.999147276217208,0.0412882601684112,-0,-0,0,0,0,0.2,0,0,0,0,0,0,0,0
0.414,0,0,0,0.999143142395462,0.0413881746894251,-0,-0,0,0,0,0.2,0,0,0,0,0,0,0,0
0.415,0,0,0,0.999138998582284,0.0414880887965572,-0,-0,0,0,0,0.2,0,0,0,0,0,0,0,0
0.416,0,0,0,0.999134844777716,0.0415880024888084,-0,-0,0,0,0,0.2,0,0,0,0,0,0,0,0
0.417,0,0,0,0.9991306809818,0.0416879157651795,-0,-0,0,0,0,0.2,0,0,0,0,0,0,0,0
0.418,0,0,0,0.999126507194577,0.0417878286246715,-0,-0,0,0,0,0.2,0,0,0,0,0,0,0,0
0.419,0,0,0,0.999122323416089,0.0418877410662853,-0,-0,0,0,0,0.2,0,0,0,0,0,0,0,0
0.42,0,0,0,0.999118129646378,0.0419876530890216,-0,-0,0,0,0,0.2,0,0,0,0,0,0,0,0
0.421,0,0,0,0.999113925885485,0.0420875646918814,-0,-0,0,0,0,0.2,0,0,0,0,0,0,0,0
0.422,0,0,0,0.999109712133453,0.0421874758738655,-0,-0,0,0,0,0.2,0,0,0,0,0,0,0,0
0.423,0,0,0,0.999105488390324,0.0422873866339749,-0,-0,0,0,0,0.2,0,0,0,0,0,0,0,0
0.424,0,0,0,0.999101254656141,0.0423872969712104,-0,-0,0,0,0,0.2,0,0,0,0,0,0,0,0
0.425,0,0,0,0.999097010930944,0.042487206884573,-0,-0,0,0,0,0.2,0,0,0,0,0,0,0,0
0.426,0,0,0,0.999092757214778,0.0425871163730635,-0,-0,0,0,0,0.2,0,0,0,0,0,0,0,0
0.427,0,0,0,0.999088493507684,0.0426870254356828,-0,-0,0,0,0,0.2,0,0,0,0,0,0,0,0
0.428,0,0,0,0.999084219809705,0.0427869340714319,-0,-0,0,0,0,0.2,0,0,0,0,0,0,0,0
0.429,0,0,0,0.999079936120884,0.0428868422793116,-0,-0,0,0,0,0.2,0,0,0,0,0,0,0,0
0.43,0,0,0,0.999075642441263,0.0429867500583229,-0,-0,0,0,0,0.2,0,0,0,0,0,0,0,0
0.431,0,0,0,0.999071338770887,0.0430866574074667,-0,-0,0,0,0,0.2,0,0,0,0,0,0,0,0
0.432,0,0,0,0.999067025109796,0.0431865643257439,-0,-0,0,0,0,0.2,0,0,0,0,0,0,0,0
0.433,0,0,0,0.999062701458036,0.0432864708121555,-0,-0,0,0,0,0.2,0,0,0,0,0,0,0,0
0.434,0,0,0,0.999058367815648,0.0433863768657024,-0,-0,0,0,0,0.2,0,0,0,0,0,0,0,0
0.435,0,0,0,0.999054024182677,0.0434862824853855,-0,-0,0,0,0,0.2,0,0,0,0,0,0,0,0
0.436,0,0,0,0.999049670559166,0.0435861876702058,-0,-0,0,0,0,0.2,0,0,0,0,0,0,0,0
0.437,0,0,0,0.999045306945158,0.0436860924191642,-0,-0,0,0,0,0.2,0,0,0,0,0,0,0,0
0.438,0,0,0,0.999040933340697,0.0437859967312617,-0,-0,0,0,0,0.2,0,0,0,0,0,0,0,0
0.439,0,0,0,0.999036549745826,0.0438859006054992,-0,-0,0,0,0,0.2,0,0,0,0,0,0,0,0
0.44,0,0,0,0.99903215616059,0.0439858040408777,-0,-0,0,0,0,0.2,0,0,0,0,0,0,0,0
0.441,0,0,0,0.999027752585033,0.0440857070363982,-0,-0,0,0,0,0.2,0,0,0,0,0,0,0,0
0.442,0,0,0,0.999023339019197,0.0441856095910616,-0,-0,0,0,0,0.2,0,0,0,0,0,0,0,0
0.443,0,0,0,0.999018915463129,0.0442855117038689,-0,-0,0,0,0,0.2,0,0,0,0,0,0,0,0
0.444,0,0,0,0.999014481916871,0.0443854133738211,-0,-0,0,0,0,0.2,0,0,0,0,0,0,0,0
0.445,0,0,0,0.999010038380469,0.0444853145999191,-0,-0,0,0,0,0.2,0,0,0,0,0,0,0,0
0.446,0,0,0,0.999005584853966,0.044585215381164,-0,-0,0,0,0,0.2,0,0,0,0,0,0,0,0
0.447,0,0,0,0.999001121337408,0.0446851157165568,-0,-0,0,0,0,0.2,0,0,0,0,0,0,0,0
0.448,0,0,0,0.998996647830838,0.0447850156050984,-0,-0,0,0,0,0.2,0,0,0,0,0,0,0,0
0.449,0,0,0,0.998992164334302,0.0448849150457898,-0,-0,0,0,0,0.2,0,0,0,0,0,0,0,0
0.45,0,0,0,0.998987670847844,0.0449848140376321,-0,-0,0,0,0,0.2,0,0,0,0,0,0,0,0
0.451,0,0,0,0.998983167371509,0.0450847125796263,-0,-0,0,0,0,0.2,0,0,0,0,0,0,0,0
0.452,0,0,0,0.998978653905343,0.0451846106707733,-0,-0,0,0,0,0.2,0,0,0,0,0,0,0,0
0.453,0,0,0,0.99897413044939,0.0452845083100742,-0,-0,0,0,0,0.2,0,0,0,0,0,0,0,0
0.454,0,0,0,0.998969597003696,0.0453844054965301,-0,-0,0,0,0,0.2,0,0,0,0,0,0,0,0
0.455,0,0,0,0.998965053568306,0.0454843022291419,-0,-0,0,0,0,0.2,0,0,0,0,0,0,0,0
0.456,0,0,0,0.998960500143265,0.0455841985069106,-0,-0,0,0,0,0.2,0,0,0,0,0,0,0,0
0.457,0,0,0,0.99895593672862,0.0456840943288374,-0,-0,0,0,0,0.2,0,0,0,0,0,0,0,0
0.458,0,0,0,0.998951363324415,0.0457839896939232,-0,-0,0,0,0,0.2,0,0,0,0,0,0,0,0
0.459,0,0,0,0.998946779930696,0.0458838846011692,-0,-0,0,0,0,0.2,0,0,0,0,0,0,0,0
0.46,0,0,0,0.99894218654751,0.0459837790495763,-0,-0,0,0,0,0.2,0,0,0,0,0,0,0,0
0.461,0,0,0,0.998937583174902,0.0460836730381456,-0,-0,0,0,0,0.2,0,0,0,0,0,0,0,0
0.462,0,0,0,0.998932969812918,0.0461835665658781,-0,-0,0,0,0,0.2,0,0,0,0,0,0,0,0
0.463,0,0,0,0.998928346461604,0.046283459631775,-0,-0,0,0,0,0.2,0,0,0,0,0,0,0,0
0.464,0,0,0,0.998923713121007,0.0463833522348374,-0,-0,0,0,0,0.2,0,0,0,0,0,0,0,0
0.465,0,0,0,0.998919069791172,0.0464832443740662,-0,-0,0,0,0,0.2,0,0,0,0,0,0,0,0
0.466,0,0,0,0.998914416472147,0.0465831360484625,-0,-0,0,0,0,0.2,0,0,0,0,0,0,0,0
0.467,0,0,0,0.998909753163978,0.0466830272570275,-0,-0,0,0,0,0.2,0,0,0,0,0,0,0,0
0.468,0,0,0,0.998905079866711,0.0467829179987622,-0,-0,0,0,0,0.2,0,0,0,0,0,0,0,0
0.469,0,0,0,0.998900396580394,0.0468828082726677,-0,-0,0,0,0,0.2,0,0,0,0,0,0,0,0
0.47,0,0,0,0.998895703305073,0.0469826980777452,-0,-0,0,0,0,0.2,0,0,0,0,0,0,0,0
0.471,0,0,0,0.998891000040794,0.0470825874129957,-0,-0,0,0,0,0.2,0,0,0,0,0,0,0,0
0.472,0,0,0,0.998886286787606,0.0471824762774203,-0,-0,0,0,0,0.2,0,0,0,0,0,0,0,0
0.473,0,0,0,0.998881563545554,0.0472823646700201,-0,-0,0,0,0,0.2,0,0,0,0,0,0,0,0
0.474,0,0,0,0.998876830314687,0.0473822525897963,-0,-0,0,0,0,0.2,0,0,0,0,0,0,0,0
0.475,0,0,0,0.998872087095052,0.04748214003575,-0,-0,0,0,0,0.2,0,0,0,0,0,0,0,0
0.476,0,0,0,0.998867333886696,0.0475820270068822,-0,-0,0,0,0,0.2,0,0,0,0,0,0,0,0
0.477,0,0,0,0.998862570689667,0.0476819135021942,-0,-0,0,0,0,0.2,0,0,0,0,0,0,0,0
0.478,0,0,0,0.998857797504011,0.0477817995206871,-0,-0,0,0,0,0.2,0,0,0,0,0,0,0,0
0.479,0,0,0,0.998853014329779,0.047881685061362,-0,-0,0,0,0,0.2,0,0,0,0,0,0,0,0
0.48,0,0,0,0.998848221167015,0.04798157012322,-0,-0,0,0,0,0.2,0,0,0,0,0,0,0,0
0.481,0,0,0,0.99884341801577,0.0480814547052623,-0,-0,0,0,0,0.2,0,0,0,0,0,0,0,0
0.482,0,0,0,0.99883860487609,0.04818133880649,-0,-0,0,0,0,0.2,0,0,0,0,0,0,0,0
0.483,0,0,0,0.998833781748025,0.0482812224259044,-0,-0,0,0,0,0.2,0,0,0,0,0,0,0,0
0.484,0,0,0,0.998828948631621,0.0483811055625066,-0,-0,0,0,0,0.2,0,0,0,0,0,0,0,0
0.485,0,0,0,0.998824105526928,0.0484809882152977,-0,-0,0,0,0,0.2,0,0,0,0,0,0,0,0
0.486,0,0,0,0.998819252433994,0.0485808703832789,-0,-0,0,0,0,0.2,0,0,0,0,0,0,0,0
0.487,0,0,0,0.998814389352868,0.0486807520654514,-0,-0,0,0,0,0.2,0,0,0,0,0,0,0,0
0.488,0,0,0,0.998809516283597,0.0487806332608164,-0,-0,0,0,0,0.2,0,0,0,0,0,0,0,0
0.489,0,0,0,0.998804633226232,0.0488805139683751,-0,-0,0,0,0,0.2,0,0,0,0,0,0,0,0
0.49,0,0,0,0.99879974018082,0.0489803941871286,-0,-0,0,0,0,0.2,0,0,0,0,0,0,0,0
0.491,0,0,0,0.998794837147411,0.0490802739160782,-0,-0,0,0,0,0.2,0,0,0,0,0,0,0,0
0.492,0,0,0,0.998789924126053,0.049180153154225,-0,-0,0,0,0,0.2,0,0,0,0,0,0,0,0
0.493,0,0,0,0.998785001116796,0.0492800319005703,-0,-0,0,0,0,0.2,0,0,0,0,0,0,0,0
0.494,0,0,0,0.99878006811969,0.0493799101541153,-0,-0,0,0,0,0.2,0,0,0,0,0,0,0,0
0.495,0,0,0,0.998775125134782,0.0494797879138612,-0,-0,0,0,0,0.2,0,0,0,0,0,0,0,0
0.496,0,0,0,0.998770172162123,0.0495796651788092,-0,-0,0,0,0,0.2,0,0,0,0,0,0,0,0
0.497,0,0,0,0.998765209201763,0.0496795419479606,-0,-0,0,0,0,0.2,0,0,0,0,0,0,0,0
0.498,0,0,0,0.99876023625375,0.0497794182203165,-0,-0,0,0,0,0.2,0,0,0,0,0,0,0,0
0.499,0,0,0,0.998755253318135,0.0498792939948783,-0,-0,0,0,0,0.2,0,0,0,0,0,0,0,0
0.5,0,0,0,0.998750260394968,0.0499791692706471,-0,-0,0,0,0,0.2,0,0,0,0,0,0,0,0
0.501,0,0,0,0.998745257484298,0.0500790440466242,-0,-0,0,0,0,0.2,0,0,0,0,0,0,0,0
0.502,0,0,0,0.998740244586175,0.0501789183218109,-0,-0,0,0,0,0.2,0,0,0,0,0,0,0,0
0.503,0,0,0,0.99873522170065,0.0502787920952084,-0,-0,0,0,0,0.2,0,0,0,0,0,0,0,0
0.504,0,0,0,0.998730188827773,0.050378665365818,-0,-0,0,0,0,0.2,0,0,0,0,0,0,0,0
0.505,0,0,0,0.998725145967594,0.050478538132641,-0,-0,0,0,0,0.2,0,0,0,0,0,0,0,0
0.506,0,0,0,0.998720093120163,0.0505784103946785,-0,-0,0,0,0,0.2,0,0,0,0,0,0,0,0
0.507,0,0,0,0.998715030285532,0.050678282150932,-0,-0,0,0,0,0.2,0,0,0,0,0,0,0,0
0.508,0,0,0,0.99870995746375,0.0507781534004026,-0,-0,0,0,0,0.2,0,0,0,0,0,0,0,0
0.509,0,0,0,0.998704874654869,0.0508780241420917,-0,-0,0,0,0,0.2,0,0,0,0,0,0,0,0
0.51,0,0,0,0.998699781858938,0.0509778943750005,-0,-0,0,0,0,0.2,0,0,0,0,0,0,0,0
0.511,0,0,0,0.998694679076011,0.0510777640981305,-0,-0,0,0,0,0.2,0,0,0,0,0,0,0,0
0.512,0,0,0,0.998689566306136,0.0511776333104827,-0,-0,0,0,0,0.2,0,0,0,0,0,0,0,0
0.513,0,0,0,0.998684443549366,0.0512775020110587,-0,-0,0,0,0,0.2,0,0,0,0,0,0,0,0
0.514,0,0,0,0.998679310805751,0.0513773701988596,-0,-0,0,0,0,0.2,0,0,0,0,0,0,0,0
0.515,0,0,0,0.998674168075343,0.0514772378728868,-0,-0,0,0,0,0.2,0,0,0,0,0,0,0,0
0.516,0,0,0,0.998669015358193,0.0515771050321416,-0,-0,0,0,0,0.2,0,0,0,0,0,0,0,0
0.517,0,0,0,0.998663852654354,0.0516769716756254,-0,-0,0,0,0,0.2,0,0,0,0,0,0,0,0
0.518,0,0,0,0.998658679963875,0.0517768378023395,-0,-0,0,0,0,0.2,0,0,0,0,0,0,0,0
0.519,0,0,0,0.998653497286811,0.0518767034112852,-0,-0,0,0,0,0.2,0,0,0,0,0,0,0,0
0.52,0,0,0,0.998648304623211,0.0519765685014639,-0,-0,0,0,0,0.2,0,0,0,0,0,0,0,0
0.521,0,0,0,0.998643101973128,0.0520764330718768,-0,-0,0,0,0,0.2,0,0,0,0,0,0,0,0
0.522,0,0,0,0.998637889336614,0.0521762971215255,-0,-0,0,0,0,0.2,0,0,0,0,0,0,0,0
0.523,0,0,0,0.998632666713721,0.0522761606494111,-0,-0,0,0,0,0.2,0,0,0,0,0,0,0,0
0.524,0,0,0,0.998627434104501,0.0523760236545352,-0,-0,0,0,0,0.2,0,0,0,0,0,0,0,0
0.525,0,0,0,0.998622191509007,0.052475886135899,-0,-0,0,0,0,0.2,0,0,0,0,0,0,0,0
0.526,0,0,0,0.998616938927291,0.052575748092504,-0,-0,0,0,0,0.2,0,0,0,0,0,0,0,0
0.527,0,0,0,0.998611676359406,0.0526756095233515,-0,-0,0,0,0,0.2,0,0,0,0,0,0,0,0
0.528,0,0,0,0.998606403805404,0.0527754704274429,-0,-0,0,0,0,0.2,0,0,0,0,0,0,0,0
0.529,0,0,0,0.998601121265338,0.0528753308037796,-0,-0,0,0,0,0.2,0,0,0,0,0,0,0,0
0.53,0,0,0,0.998595828739261,0.052975190651363,-0,-0,0,0,0,0.2,0,0,0,0,0,0,0,0
0.531,0,0,0,0.998590526227226,0.0530750499691944,-0,-0,0,0,0,0.2,0,0,0,0,0,0,0,0
0.532,0,0,0,0.998585213729285,0.0531749087562754,-0,-0,0,0,0,0.2,0,0,0,0,0,0,0,0
0.533,0,0,0,0.998579891245492,0.0532747670116073,-0,-0,0,0,0,0.2,0,0,0,0,0,0,0,0
0.534,0,0,0,0.998574558775901,0.0533746247341915,-0,-0,0,0,0,0.2,0,0,0,0,0,0,0,0
0.535,0,0,0,0.998569216320563,0.0534744819230295,-0,-0,0,0,0,0.2,0,0,0,0,0,0,0,0
0.536,0,0,0,0.998563863879534,0.0535743385771227,-0,-0,0,0,0,0.2,0,0,0,0,0,0,0,0
0.537,0,0,0,0.998558501452866,0.0536741946954724,-0,-0,0,0,0,0.2,0,0,0,0,0,0,0,0
0.538,0,0,0,0.998553129040613,0.0537740502770803,-0,-0,0,0,0,0.2,0,0,0,0,0,0,0,0
0.539,0,0,0,0.998547746642828,0.0538739053209476,-0,-0,0,0,0,0.2,0,0,0,0,0,0,0,0
0.54,0,0,0,0.998542354259566,0.0539737598260758,-0,-0,0,0,0,0.2,0,0,0,0,0,0,0,0
0.541,0,0,0,0.998536951890881,0.0540736137914665,-0,-0,0,0,0,0.2,0,0,0,0,0,0,0,0
0.542,0,0,0,0.998531539536826,0.0541734672161211,-0,-0,0,0,0,0.2,0,0,0,0,0,0,0,0
0.543,0,0,0,0.998526117197456,0.0542733200990409,-0,-0,0,0,0,0.2,0,0,0,0,0,0,0,0
0.544,0,0,0,0.998520684872824,0.0543731724392276,-0,-0,0,0,0,0.2,0,0,0,0,0,0,0,0
0.545,0,0,0,0.998515242562986,0.0544730242356825,-0,-0,0,0,0,0.2,0,0,0,0,0,0,0,0
0.546,0,0,0,0.998509790267995,0.0545728754874072,-0,-0,0,0,0,0.2,0,0,0,0,0,0,0,0
0.547,0,0,0,0.998504327987907,0.0546727261934032,-0,-0,0,0,0,0.2,0,0,0,0,0,0,0,0
0.548,0,0,0,0.998498855722775,0.0547725763526718,-0,-0,0,0,0,0.2,0,0,0,0,0,0,0,0
0.549,0,0,0,0.998493373472655,0.0548724259642148,-0,-0,0,0,0,0.2,0,0,0,0,0,0,0,0
0.55,0,0,0,0.9984878812376,0.0549722750270334,-0,-0,0,0,0,0.2,0,0,0,0,0,0,0,0
0.551,0,0,0,0.998482379017667,0.0550721235401293,-0,-0,0,0,0,0.2,0,0,0,0,0,0,0,0
0.552,0,0,0,0.998476866812911,0.055171971502504,-0,-0,0,0,0,0.2,0,0,0,0,0,0,0,0
0.553,0,0,0,0.998471344623385,0.0552718189131589,-0,-0,0,0,0,0.2,0,0,0,0,0,0,0,0
0.554,0,0,0,0.998465812449147,0.0553716657710957,-0,-0,0,0,0,0.2,0,0,0,0,0,0,0,0
0.555,0,0,0,0.99846027029025,0.0554715120753158,-0,-0,0,0,0,0.2,0,0,0,0,0,0,0,0
0.556,0,0,0,0.99845471814675,0.0555713578248208,-0,-0,0,0,0,0.2,0,0,0,0,0,0,0,0
0.557,0,0,0,0.998449156018703,0.0556712030186122,-0,-0,0,0,0,0.2,0,0,0,0,0,0,0,0
0.558,0,0,0,0.998443583906165,0.0557710476556916,-0,-0,0,0,0,0.2,0,0,0,0,0,0,0,0
0.559,0,0,0,0.998438001809191,0.0558708917350605,-0,-0,0,0,0,0.2,0,0,0,0,0,0,0,0
0.56,0,0,0,0.998432409727836,0.0559707352557205,-0,-0,0,0,0,0.2,0,0,0,0,0,0,0,0
0.561,0,0,0,0.998426807662158,0.0560705782166732,-0,-0,0,0,0,0.2,0,0,0,0,0,0,0,0
0.562,0,0,0,0.998421195612212,0.05617042061692,-0,-0,0,0,0,0.2,0,0,0,0,0,0,0,0
0.563,0,0,0,0.998415573578053,0.0562702624554627,-0,-0,0,0,0,0.2,0,0,0,0,0,0,0,0
0.564,0,0,0,0.998409941559739,0.0563701037313027,-0,-0,0,0,0,0.2,0,0,0,0,0,0,0,0
0.565,0,0,0,0.998404299557326,0.0564699444434417,-0,-0,0,0,0,0.2,0,0,0,0,0,0,0,0
0.566,0,0,0,0.99839864757087,0.0565697845908812,-0,-0,0,0,0,0.2,0,0,0,0,0,0,0,0
0.567,0,0,0,0.998392985600427,0.0566696241726229,-0,-0,0,0,0,0.2,0,0,0,0,0,0,0,0
0.568,0,0,0,0.998387313646054,0.0567694631876684,-0,-0,0,0,0,0.2,0,0,0,0,0,0,0,0
0.569,0,0,0,0.998381631707808,0.0568693016350192,-0,-0,0,0,0,0.2,0,0,0,0,0,0,0,0
0.57,0,0,0,0.998375939785746,0.056969139513677,-0,-0,0,0,0,0.2,0,0,0,0,0,0,0,0
0.571,0,0,0,0.998370237879924,0.0570689768226435,-0,-0,0,0,0,0.2,0,0,0,0,0,0,0,0
0.572,0,0,0,0.9983645259904,0.0571688135609201,-0,-0,0,0,0,0.2,0,0,0,0,0,0,0,0
0.573,0,0,0,0.998358804117231,0.0572686497275086,-0,-0,0,0,0,0.2,0,0,0,0,0,0,0,0
0.574,0,0,0,0.998353072260474,0.0573684853214107,-0,-0,0,0,0,0.2,0,0,0,0,0,0,0,0
0.575,0,0,0,0.998347330420186,0.0574683203416278,-0,-0,0,0,0,0.2,0,0,0,0,0,0,0,0
0.576,0,0,0,0.998341578596425,0.0575681547871618,-0,-0,0,0,0,0.2,0,0,0,0,0,0,0,0
0.577,0,0,0,0.998335816789248,0.0576679886570142,-0,-0,0,0,0,0.2,0,0,0,0,0,0,0,0
0.578,0,0,0,0.998330044998713,0.0577678219501867,-0,-0,0,0,0,0.2,0,0,0,0,0,0,0,0
0.579,0,0,0,0.998324263224877,0.057867654665681,-0,-0,0,0,0,0.2,0,0,0,0,0,0,0,0
0.58,0,0,0,0.998318471467799,0.0579674868024988,-0,-0,0,0,0,0.2,0,0,0,0,0,0,0,0
0.581,0,0,0,0.998312669727536,0.0580673183596417,-0,-0,0,0,0,0.2,0,0,0,0,0,0,0,0
0.582,0,0,0,0.998306858004146,0.0581671493361114,-0,-0,0,0,0,0.2,0,0,0,0,0,0,0,0
0.583,0,0,0,0.998301036297688,0.0582669797309096,-0,-0,0,0,0,0.2,0,0,0,0,0,0,0,0
0.584,0,0,0,0.998295204608219,0.0583668095430381,-0,-0,0,0,0,0.2,0,0,0,0,0,0,0,0
0.585,0,0,0,0.998289362935799,0.0584666387714984,-0,-0,0,0,0,0.2,0,0,0,0,0,0,0,0
0.586,0,0,0,0.998283511280485,0.0585664674152923,-0,-0,0,0,0,0.2,0,0,0,0,0,0,0,0
0.587,0,0,0,0.998277649642335,0.0586662954734216,-0,-0,0,0,0,0.2,0,0,0,0,0,0,0,0
0.588,0,0,0,0.99827177802141,0.0587661229448879,-0,-0,0,0,0,0.2,0,0,0,0,0,0,0,0
0.589,0,0,0,0.998265896417766,0.058865949828693,-0,-0,0,0,0,0.2,0,0,0,0,0,0,0,0
0.59,0,0,0,0.998260004831463,0.0589657761238386,-0,-0,0,0,0,0.2,0,0,0,0,0,0,0,0
0.591,0,0,0,0.998254103262561,0.0590656018293264,-0,-0,0,0,0,0.2,0,0,0,0,0,0,0,0
0.592,0,0,0,0.998248191711117,0.0591654269441582,-0,-0,0,0,0,0.2,0,0,0,0,0,0,0,0
0.593,0,0,0,0.998242270177192,0.0592652514673358,-0,-0,0,0,0,0.2,0,0,0,0,0,0,0,0
0.594,0,0,0,0.998236338660843,0.0593650753978608,-0,-0,0,0,0,0.2,0,0,0,0,0,0,0,0
0.595,0,0,0,0.998230397162132,0.0594648987347351,-0,-0,0,0,0,0.2,0,0,0,0,0,0,0,0
0.596,0,0,0,0.998224445681117,0.0595647214769604,-0,-0,0,0,0,0.2,0,0,0,0,0,0,0,0
0.597,0,0,0,0.998218484217856,0.0596645436235384,-0,-0,0,0,0,0.2,0,0,0,0,0,0,0,0
0.598,0,0,0,0.998212512772412,0.0597643651734711,-0,-0,0,0,0,0.2,0,0,0,0,0,0,0,0
0.599,0,0,0,0.998206531344842,0.05986418612576,-0,-0,0,0,0,0.2,0,0,0,0,0,0,0,0
0.6,0,0,0,0.998200539935207,0.0599640064794072,-0,-0,0,0,0,0.2,0,0,0,0,0,0,0,0
0.601,0,0,0,0.998194538543566,0.0600638262334142,-0,-0,0,0,0,0.2,0,0,0,0,0,0,0,0
0.602,0,0,0,0.99818852716998,0.060163645386783,-0,-0,0,0,0,0.2,0,0,0,0,0,0,0,0
0.603,0,0,0,0.998182505814509,0.0602634639385154,-0,-0,0,0,0,0.2,0,0,0,0,0,0,0,0
0.604,0,0,0,0.998176474477212,0.0603632818876131,-0,-0,0,0,0,0.2,0,0,0,0,0,0,0,0
0.605,0,0,0,0.998170433158151,0.060463099233078,-0,-0,0,0,0,0.2,0,0,0,0,0,0,0,0
0.606,0,0,0,0.998164381857386,0.0605629159739119,-0,-0,0,0,0,0.2,0,0,0,0,0,0,0,0
0.607,0,0,0,0.998158320574977,0.0606627321091166,-0,-0,0,0,0,0.2,0,0,0,0,0,0,0,0
0.608,0,0,0,0.998152249310984,0.060762547637694,-0,-0,0,0,0,0.2,0,0,0,0,0,0,0,0
0.609,0,0,0,0.998146168065469,0.0608623625586459,-0,-0,0,0,0,0.2,0,0,0,0,0,0,0,0
0.61,0,0,0,0.998140076838493,0.0609621768709742,-0,-0,0,0,0,0.2,0,0,0,0,0,0,0,0
0.611,0,0,0,0.998133975630115,0.0610619905736808,-0,-0,0,0,0,0.2,0,0,0,0,0,0,0,0
0.612,0,0,0,0.998127864440398,0.0611618036657674,-0,-0,0,0,0,0.2,0,0,0,0,0,0,0,0
0.613,0,0,0,0.998121743269403,0.061261616146236,-0,-0,0,0,0,0.2,0,0,0,0,0,0,0,0
0.614,0,0,0,0.998115612117189,0.0613614280140885,-0,-0,0,0,0,0.2,0,0,0,0,0,0,0,0
0.615,0,0,0,0.99810947098382,0.0614612392683266,-0,-0,0,0,0,0.2,0,0,0,0,0,0,0,0
0.616,0,0,0,0.998103319869356,0.0615610499079524,-0,-0,0,0,0,0.2,0,0,0,0,0,0,0,0
0.617,0,0,0,0.998097158773859,0.0616608599319677,-0,-0,0,0,0,0.2,0,0,0,0,0,0,0,0
0.618,0,0,0,0.99809098769739,0.0617606693393744,-0,-0,0,0,0,0.2,0,0,0,0,0,0,0,0
0.619,0,0,0,0.998084806640012,0.0618604781291743,-0,-0,0,0,0,0.2,0,0,0,0,0,0,0,0
0.62,0,0,0,0.998078615601785,0.0619602863003695,-0,-0,0,0,0,0.2,0,0,0,0,0,0,0,0
0.621,0,0,0,0.998072414582773,0.0620600938519619,-0,-0,0,0,0,0.2,0,0,0,0,0,0,0,0
0.622,0,0,0,0.998066203583036,0.0621599007829533,-0,-0,0,0,0,0.2,0,0,0,0,0,0,0,0
0.623,0,0,0,0.998059982602637,0.0622597070923457,-0,-0,0,0,0,0.2,0,0,0,0,0,0,0,0
0.624,0,0,0,0.998053751641638,0.062359512779141,-0,-0,0,0,0,0.2,0,0,0,0,0,0,0,0
0.625,0,0,0,0.998047510700102,0.0624593178423412,-0,-0,0,0,0,0.2,0,0,0,0,0,0,0,0
0.626,0,0,0,0.99804125977809,0.0625591222809482,-0,-0,0,0,0,0.2,0,0,0,0,0,0,0,0
0.627,0,0,0,0.998034998875666,0.062658926093964,-0,-0,0,0,0,0.2,0,0,0,0,0,0,0,0
0.628,0,0,0,0.998028727992892,0.0627587292803905,-0,-0,0,0,0,0.2,0,0,0,0,0,0,0,0
0.629,0,0,0,0.998022447129831,0.0628585318392298,-0,-0,0,0,0,0.2,0,0,0,0,0,0,0,0
0.63,0,0,0,0.998016156286546,0.0629583337694837,-0,-0,0,0,0,0.2,0,0,0,0,0,0,0,0
0.631,0,0,0,0.998009855463098,0.0630581350701543,-0,-0,0,0,0,0.2,0,0,0,0,0,0,0,0
0.632,0,0,0,0.998003544659552,0.0631579357402435,-0,-0,0,0,0,0.2,0,0,0,0,0,0,0,0
0.633,0,0,0,0.997997223875971,0.0632577357787534,-0,-0,0,0,0,0.2,0,0,0,0,0,0,0,0
0.634,0,0,0,0.997990893112418,0.0633575351846859,-0,-0,0,0,0,0.2,0,0,0,0,0,0,0,0
0.635,0,0,0,0.997984552368955,0.0634573339570431,-0,-0,0,0,0,0.2,0,0,0,0,0,0,0,0
0.636,0,0,0,0.997978201645648,0.0635571320948269,-0,-0,0,0,0,0.2,0,0,0,0,0,0,0,0
0.637,0,0,0,0.997971840942558,0.0636569295970395,-0,-0,0,0,0,0.2,0,0,0,0,0,0,0,0
0.638,0,0,0,0.997965470259749,0.0637567264626827,-0,-0,0,0,0,0.2,0,0,0,0,0,0,0,0
0.639,0,0,0,0.997959089597286,0.0638565226907586,-0,-0,0,0,0,0.2,0,0,0,0,0,0,0,0
0.64,0,0,0,0.997952698955233,0.0639563182802694,-0,-0,0,0,0,0.2,0,0,0,0,0,0,0,0
0.641,0,0,0,0.997946298333652,0.0640561132302169,-0,-0,0,0,0,0.2,0,0,0,0,0,0,0,0
0.642,0,0,0,0.997939887732608,0.0641559075396033,-0,-0,0,0,0,0.2,0,0,0,0,0,0,0,0
0.643,0,0,0,0.997933467152165,0.0642557012074307,-0,-0,0,0,0,0.2,0,0,0,0,0,0,0,0
0.644,0,0,0,0.997927036592388,0.064355494232701,-0,-0,0,0,0,0.2,0,0,0,0,0,0,0,0
0.645,0,0,0,0.99792059605334,0.0644552866144164,-0,-0,0,0,0,0.2,0,0,0,0,0,0,0,0
0.646,0,0,0,0.997914145535086,0.0645550783515789,-0,-0,0,0,0,0.2,0,0,0,0,0,0,0,0
0.647,0,0,0,0.997907685037691,0.0646548694431906,-0,-0,0,0,0,0.2,0,0,0,0,0,0,0,0
0.648,0,0,0,0.997901214561219,0.0647546598882537,-0,-0,0,0,0,0.2,0,0,0,0,0,0,0,0
0.649,0,0,0,0.997894734105735,0.0648544496857701,-0,-0,0,0,0,0.2,0,0,0,0,0,0,0,0
0.65,0,0,0,0.997888243671304,0.0649542388347421,-0,-0,0,0,0,0.2,0,0,0,0,0,0,0,0
0.651,0,0,0,0.99788174325799,0.0650540273341716,-0,-0,0,0,0,0.2,0,0,0,0,0,0,0,0
0.652,0,0,0,0.997875232865859,0.0651538151830609,-0,-0,0,0,0,0.2,0,0,0,0,0,0,0,0
0.653,0,0,0,0.997868712494975,0.065253602380412,-0,-0,0,0,0,0.2,0,0,0,0,0,0,0,0
0.654,0,0,0,0.997862182145404,0.0653533889252271,-0,-0,0,0,0,0.2,0,0,0,0,0,0,0,0
0.655,0,0,0,0.997855641817212,0.0654531748165084,-0,-0,0,0,0,0.2,0,0,0,0,0,0,0,0
0.656,0,0,0,0.997849091510463,0.0655529600532578,-0,-0,0,0,0,0.2,0,0,0,0,0,0,0,0
0.657,0,0,0,0.997842531225223,0.0656527446344777,-0,-0,0,0,0,0.2,0,0,0,0,0,0,0,0
0.658,0,0,0,0.997835960961558,0.0657525285591702,-0,-0,0,0,0,0.2,0,0,0,0,0,0,0,0
0.659,0,0,0,0.997829380719533,0.0658523118263373,-0,-0,0,0,0,0.2,0,0,0,0,0,0,0,0
0.66,0,0,0,0.997822790499215,0.0659520944349813,-0,-0,0,0,0,0.2,0,0,0,0,0,0,0,0
0.661,0,0,0,0.997816190300668,0.0660518763841044,-0,-0,0,0,0,0.2,0,0,0,0,0,0,0,0
0.662,0,0,0,0.99780958012396,0.0661516576727087,-0,-0,0,0,0,0.2,0,0,0,0,0,0,0,0
0.663,0,0,0,0.997802959969156,0.0662514382997965,-0,-0,0,0,0,0.2,0,0,0,0,0,0,0,0
0.664,0,0,0,0.997796329836322,0.0663512182643698,-0,-0,0,0,0,0.2,0,0,0,0,0,0,0,0
0.665,0,0,0,0.997789689725525,0.066450997565431,-0,-0,0,0,0,0.2,0,0,0,0,0,0,0,0
0.666,0,0,0,0.997783039636831,0.0665507762019822,-0,-0,0,0,0,0.2,0,0,0,0,0,0,0,0
0.667,0,0,0,0.997776379570307,0.0666505541730257,-0,-0,0,0,0,0.2,0,0,0,0,0,0,0,0
0.668,0,0,0,0.997769709526019,0.0667503314775636,-0,-0,0,0,0,0.2,0,0,0,0,0,0,0,0
0.669,0,0,0,0.997763029504033,0.0668501081145982,-0,-0,0,0,0,0.2,0,0,0,0,0,0,0,0
0.67,0,0,0,0.997756339504418,0.0669498840831317,-0,-0,0,0,0,0.2,0,0,0,0,0,0,0,0
0.671,0,0,0,0.997749639527239,0.0670496593821663,-0,-0,0,0,0,0.2,0,0,0,0,0,0,0,0
0.672,0,0,0,0.997742929572564,0.0671494340107044,-0,-0,0,0,0,0.2,0,0,0,0,0,0,0,0
0.673,0,0,0,0.997736209640459,0.0672492079677481,-0,-0,0,0,0,0.2,0,0,0,0,0,0,0,0
0.674,0,0,0,0.997729479730993,0.0673489812522998,-0,-0,0,0,0,0.2,0,0,0,0,0,0,0,0
0.675,0,0,0,0.997722739844231,0.0674487538633616,-0,-0,0,0,0,0.2,0,0,0,0,0,0,0,0
0.676,0,0,0,0.997715989980243,0.0675485257999359,-0,-0,0,0,0,0.2,0,0,0,0,0,0,0,0
0.677,0,0,0,0.997709230139094,0.067648297061025,-0,-0,0,0,0,0.2,0,0,0,0,0,0,0,0
0.678,0,0,0,0.997702460320853,0.0677480676456311,-0,-0,0,0,0,0.2,0,0,0,0,0,0,0,0
0.679,0,0,0,0.997695680525587,0.0678478375527564,-0,-0,0,0,0,0.2,0,0,0,0,0,0,0,0
0.68,0,0,0,0.997688890753365,0.0679476067814035,-0,-0,0,0,0,0.2,0,0,0,0,0,0,0,0
0.681,0,0,0,0.997682091004254,0.0680473753305745,-0,-0,0,0,0,0.2,0,0,0,0,0,0,0,0
0.682,0,0,0,0.997675281278322,0.0681471431992716,-0,-0,0,0,0,0.2,0,0,0,0,0,0,0,0
0.683,0,0,0,0.997668461575636,0.0682469103864974,-0,-0,0,0,0,0.2,0,0,0,0,0,0,0,0
0.684,0,0,0,0.997661631896267,0.0683466768912541,-0,-0,0,0,0,0.2,0,0,0,0,0,0,0,0
0.685,0,0,0,0.997654792240281,0.068446442712544,-0,-0,0,0,0,0.2,0,0,0,0,0,0,0,0
0.686,0,0,0,0.997647942607747,0.0685462078493695,-0,-0,0,0,0,0.2,0,0,0,0,0,0,0,0
0.687,0,0,0,0.997641082998734,0.0686459723007329,-0,-0,0,0,0,0.2,0,0,0,0,0,0,0,0
0.688,0,0,0,0.99763421341331,0.0687457360656365,-0,-0,0,0,0,0.2,0,0,0,0,0,0,0,0
0.689,0,0,0,0.997627333851544,0.0688454991430829,-0,-0,0,0,0,0.2,0,0,0,0,0,0,0,0
0.69,0,0,0,0.997620444313504,0.0689452615320742,-0,-0,0,0,0,0.2,0,0,0,0,0,0,0,0
0.691,0,0,0,0.99761354479926,0.0690450232316129,-0,-0,0,0,0,0.2,0,0,0,0,0,0,0,0
0.692,0,0,0,0.997606635308881,0.0691447842407014,-0,-0,0,0,0,0.2,0,0,0,0,0,0,0,0
0.693,0,0,0,0.997599715842435,0.069244544558342,-0,-0,0,0,0,0.2,0,0,0,0,0,0,0,0
0.694,0,0,0,0.997592786399993,0.0693443041835372,-0,-0,0,0,0,0.2,0,0,0,0,0,0,0,0
0.695,0,0,0,0.997585846981622,0.0694440631152893,-0,-0,0,0,0,0.2,0,0,0,0,0,0,0,0
0.696,0,0,0,0.997578897587393,0.0695438213526009,-0,-0,0,0,0,0.2,0,0,0,0,0,0,0,0
0.697,0,0,0,0.997571938217375,0.0696435788944742,-0,-0,0,0,0,0.2,0,0,0,0,0,0,0,0
0.698,0,0,0,0.997564968871637,0.0697433357399117,-0,-0,0,0,0,0.2,0,0,0,0,0,0,0,0
0.699,0,0,0,0.99755798955025,0.0698430918879158,-0,-0,0,0,0,0.2,0,0,0,0,0,0,0,0
0.7,0,0,0,0.997551000253283,0.0699428473374891,-0,-0,0,0,0,0.2,0,0,0,0,0,0,0,0
0.701,0,0,0,0.997544000980806,0.0700426020876338,-0,-0,0,0,0,0.2,0,0,0,0,0,0,0,0
0.702,0,0,0,0.997536991732888,0.0701423561373526,-0,-0,0,0,0,0.2,0,0,0,0,0,0,0,0
0.703,0,0,0,0.997529972509602,0.0702421094856478,-0,-0,0,0,0,0.2,0,0,0,0,0,0,0,0
0.704,0,0,0,0.997522943311015,0.0703418621315219,-0,-0,0,0,0,0.2,0,0,0,0,0,0,0,0
0.705,0,0,0,0.997515904137199,0.0704416140739774,-0,-0,0,0,0,0.2,0,0,0,0,0,0,0,0
0.706,0,0,0,0.997508854988223,0.0705413653120167,-0,-0,0,0,0,0.2,0,0,0,0,0,0,0,0
0.707,0,0,0,0.99750179586416,0.0706411158446424,-0,-0,0,0,0,0.2,0,0,0,0,0,0,0,0
0.708,0,0,0,0.997494726765078,0.0707408656708569,-0,-0,0,0,0,0.2,0,0,0,0,0,0,0,0
0.709,0,0,0,0.997487647691049,0.0708406147896628,-0,-0,0,0,0,0.2,0,0,0,0,0,0,0,0
0.71,0,0,0,0.997480558642144,0.0709403632000625,-0,-0,0,0,0,0.2,0,0,0,0,0,0,0,0
0.711,0,0,0,0.997473459618433,0.0710401109010586,-0,-0,0,0,0,0.2,0,0,0,0,0,0,0,0
0.712,0,0,0,0.997466350619987,0.0711398578916536,-0,-0,0,0,0,0.2,0,0,0,0,0,0,0,0
0.713,0,0,0,0.997459231646878,0.07123960417085,-0,-0,0,0,0,0.2,0,0,0,0,0,0,0,0
0.714,0,0,0,0.997452102699177,0.0713393497376503,-0,-0,0,0,0,0.2,0,0,0,0,0,0,0,0
0.715,0,0,0,0.997444963776954,0.0714390945910572,-0,-0,0,0,0,0.2,0,0,0,0,0,0,0,0
0.716,0,0,0,0.997437814880282,0.0715388387300731,-0,-0,0,0,0,0.2,0,0,0,0,0,0,0,0
0.717,0,0,0,0.997430656009232,0.0716385821537006,-0,-0,0,0,0,0.2,0,0,0,0,0,0,0,0
0.718,0,0,0,0.997423487163876,0.0717383248609423,-0,-0,0,0,0,0.2,0,0,0,0,0,0,0,0
0.719,0,0,0,0.997416308344284,0.0718380668508008,-0,-0,0,0,0,0.2,0,0,0,0,0,0,0,0
0.72,0,0,0,0.997409119550529,0.0719378081222786,-0,-0,0,0,0,0.2,0,0,0,0,0,0,0,0
0.721,0,0,0,0.997401920782684,0.0720375486743783,-0,-0,0,0,0,0.2,0,0,0,0,0,0,0,0
0.722,0,0,0,0.997394712040819,0.0721372885061025,-0,-0,0,0,0,0.2,0,0,0,0,0,0,0,0
0.723,0,0,0,0.997387493325007,0.0722370276164539,-0,-0,0,0,0,0.2,0,0,0,0,0,0,0,0
0.724,0,0,0,0.997380264635319,0.072336766004435,-0,-0,0,0,0,0.2,0,0,0,0,0,0,0,0
0.725,0,0,0,0.99737302597183,0.0724365036690484,-0,-0,0,0,0,0.2,0,0,0,0,0,0,0,0
0.726,0,0,0,0.99736577733461,0.0725362406092967,-0,-0,0,0,0,0.2,0,0,0,0,0,0,0,0
0.727,0,0,0,0.997358518723732,0.0726359768241827,-0,-0,0,0,0,0.2,0,0,0,0,0,0,0,0
0.728,0,0,0,0.997351250139269,0.0727357123127089,-0,-0,0,0,0,0.2,0,0,0,0,0,0,0,0
0.729,0,0,0,0.997343971581294,0.072835447073878,-0,-0,0,0,0,0.2,0,0,0,0,0,0,0,0
0.73,0,0,0,0.997336683049879,0.0729351811066926,-0,-0,0,0,0,0.2,0,0,0,0,0,0,0,0
0.731,0,0,0,0.997329384545097,0.0730349144101554,-0,-0,0,0,0,0.2,0,0,0,0,0,0,0,0
0.732,0,0,0,0.997322076067021,0.073134646983269,-0,-0,0,0,0,0.2,0,0,0,0,0,0,0,0
0.733,0,0,0,0.997314757615724,0.0732343788250362,-0,-0,0,0,0,0.2,0,0,0,0,0,0,0,0
0.734,0,0,0,0.99730742919128,0.0733341099344596,-0,-0,0,0,0,0.2,0,0,0,0,0,0,0,0
0.735,0,0,0,0.997300090793762,0.0734338403105419,-0,-0,0,0,0,0.2,0,0,0,0,0,0,0,0
0.736,0,0,0,0.997292742423243,0.0735335699522858,-0,-0,0,0,0,0.2,0,0,0,0,0,0,0,0
0.737,0,0,0,0.997285384079796,0.073633298858694,-0,-0,0,0,0,0.2,0,0,0,0,0,0,0,0
0.738,0,0,0,0.997278015763496,0.0737330270287692,-0,-0,0,0,0,0.2,0,0,0,0,0,0,0,0
0.739,0,0,0,0.997270637474415,0.0738327544615142,-0,-0,0,0,0,0.2,0,0,0,0,0,0,0,0
0.74,0,0,0,0.997263249212628,0.0739324811559316,-0,-0,0,0,0,0.2,0,0,0,0,0,0,0,0
0.741,0,0,0,0.997255850978208,0.0740322071110242,-0,-0,0,0,0,0.2,0,0,0,0,0,0,0,0
0.742,0,0,0,0.99724844277123,0.0741319323257947,-0,-0,0,0,0,0.2,0,0,0,0,0,0,0,0
0.743,0,0,0,0.997241024591768,0.0742316567992459,-0,-0,0,0,0,0.2,0,0,0,0,0,0,0,0
0.744,0,0,0,0.997233596439895,0.0743313805303805,-0,-0,0,0,0,0.2,0,0,0,0,0,0,0,0
0.745,0,0,0,0.997226158315687,0.0744311035182013,-0,-0,0,0,0,0.2,0,0,0,0,0,0,0,0
0.746,0,0,0,0.997218710219216,0.0745308257617111,-0,-0,0,0,0,0.2,0,0,0,0,0,0,0,0
0.747,0,0,0,0.997211252150559,0.0746305472599126,-0,-0,0,0,0,0.2,0,0,0,0,0,0,0,0
0.748,0,0,0,0.997203784109789,0.0747302680118087,-0,-0,0,0,0,0.2,0,0,0,0,0,0,0,0
0.749,0,0,0,0.997196306096982,0.074829988016402,-0,-0,0,0,0,0.2,0,0,0,0,0,0,0,0
0.75,0,0,0,0.997188818112211,0.0749297072726955,-0,-0,0,0,0,0.2,0,0,0,0,0,0,0,0
0.751,0,0,0,0.997181320155552,0.075029425779692,-0,-0,0,0,0,0.2,0,0,0,0,0,0,0,0
0.752,0,0,0,0.99717381222708,0.0751291435363941,-0,-0,0,0,0,0.2,0,0,0,0,0,0,0,0
0.753,0,0,0,0.99716629432687,0.0752288605418048,-0,-0,0,0,0,0.2,0,0,0,0,0,0,0,0
0.754,0,0,0,0.997158766454997,0.075328576794927,-0,-0,0,0,0,0.2,0,0,0,0,0,0,0,0
0.755,0,0,0,0.997151228611536,0.0754282922947633,-0,-0,0,0,0,0.2,0,0,0,0,0,0,0,0
0.756,0,0,0,0.997143680796563,0.0755280070403168,-0,-0,0,0,0,0.2,0,0,0,0,0,0,0,0
0.757,0,0,0,0.997136123010153,0.0756277210305902,-0,-0,0,0,0,0.2,0,0,0,0,0,0,0,0
0.758,0,0,0,0.997128555252382,0.0757274342645863,-0,-0,0,0,0,0.2,0,0,0,0,0,0,0,0
0.759,0,0,0,0.997120977523326,0.0758271467413081,-0,-0,0,0,0,0.2,0,0,0,0,0,0,0,0
0.76,0,0,0,0.997113389823059,0.0759268584597585,-0,-0,0,0,0,0.2,0,0,0,0,0,0,0,0
0.761,0,0,0,0.997105792151659,0.0760265694189402,-0,-0,0,0,0,0.2,0,0,0,0,0,0,0,0
0.762,0,0,0,0.997098184509201,0.0761262796178563,-0,-0,0,0,0,0.2,0,0,0,0,0,0,0,0
0.763,0,0,0,0.997090566895761,0.0762259890555096,-0,-0,0,0,0,0.2,0,0,0,0,0,0,0,0
0.764,0,0,0,0.997082939311415,0.076325697730903,-0,-0,0,0,0,0.2,0,0,0,0,0,0,0,0
0.765,0,0,0,0.99707530175624,0.0764254056430394,-0,-0,0,0,0,0.2,0,0,0,0,0,0,0,0
0.766,0,0,0,0.997067654230312,0.0765251127909218,-0,-0,0,0,0,0.2,0,0,0,0,0,0,0,0
0.767,0,0,0,0.997059996733707,0.076624819173553,-0,-0,0,0,0,0.2,0,0,0,0,0,0,0,0
0.768,0,0,0,0.997052329266503,0.076724524789936,-0,-0,0,0,0,0.2,0,0,0,0,0,0,0,0
0.769,0,0,0,0.997044651828775,0.0768242296390738,-0,-0,0,0,0,0.2,0,0,0,0,0,0,0,0
0.77,0,0,0,0.997036964420601,0.0769239337199693,-0,-0,0,0,0,0.2,0,0,0,0,0,0,0,0
0.771,0,0,0,0.997029267042056,0.0770236370316255,-0,-0,0,0,0,0.2,0,0,0,0,0,0,0,0
0.772,0,0,0,0.99702155969322,0.0771233395730453,-0,-0,0,0,0,0.2,0,0,0,0,0,0,0,0
0.773,0,0,0,0.997013842374168,0.0772230413432316,-0,-0,0,0,0,0.2,0,0,0,0,0,0,0,0
0.774,0,0,0,0.997006115084977,0.0773227423411876,-0,-0,0,0,0,0.2,0,0,0,0,0,0,0,0
0.775,0,0,0,0.996998377825725,0.0774224425659162,-0,-0,0,0,0,0.2,0,0,0,0,0,0,0,0
0.776,0,0,0,0.99699063059649,0.0775221420164203,-0,-0,0,0,0,0.2,0,0,0,0,0,0,0,0
0.777,0,0,0,0.996982873397348,0.077621840691703,-0,-0,0,0,0,0.2,0,0,0,0,0,0,0,0
0.778,0,0,0,0.996975106228377,0.0777215385907673,-0,-0,0,0,0,0.2,0,0,0,0,0,0,0,0
0.779,0,0,0,0.996967329089655,0.0778212357126162,-0,-0,0,0,0,0.2,0,0,0,0,0,0,0,0
0.78,0,0,0,0.996959541981261,0.0779209320562528,-0,-0,0,0,0,0.2,0,0,0,0,0,0,0,0
0.781,0,0,0,0.99695174490327,0.0780206276206801,-0,-0,0,0,0,0.2,0,0,0,0,0,0,0,0
0.782,0,0,0,0.996943937855763,0.078120322404901,-0,-0,0,0,0,0.2,0,0,0,0,0,0,0,0
0.783,0,0,0,0.996936120838815,0.0782200164079188,-0,-0,0,0,0,0.2,0,0,0,0,0,0,0,0
0.784,0,0,0,0.996928293852507,0.0783197096287364,-0,-0,0,0,0,0.2,0,0,0,0,0,0,0,0
0.785,0,0,0,0.996920456896916,0.0784194020663568,-0,-0,0,0,0,0.2,0,0,0,0,0,0,0,0
0.786,0,0,0,0.99691260997212,0.0785190937197833,-0,-0,0,0,0,0.2,0,0,0,0,0,0,0,0
0.787,0,0,0,0.996904753078198,0.0786187845880188,-0,-0,0,0,0,0.2,0,0,0,0,0,0,0,0
0.788,0,0,0,0.996896886215229,0.0787184746700665,-0,-0,0,0,0,0.2,0,0,0,0,0,0,0,0
0.789,0,0,0,0.99688900938329,0.0788181639649295,-0,-0,0,0,0,0.2,0,0,0,0,0,0,0,0
0.79,0,0,0,0.996881122582462,0.0789178524716107,-0,-0,0,0,0,0.2,0,0,0,0,0,0,0,0
0.791,0,0,0,0.996873225812822,0.0790175401891135,-0,-0,0,0,0,0.2,0,0,0,0,0,0,0,0
0.792,0,0,0,0.99686531907445,0.0791172271164409,-0,-0,0,0,0,0.2,0,0,0,0,0,0,0,0
0.793,0,0,0,0.996857402367425,0.079216913252596,-0,-0,0,0,0,0.2,0,0,0,0,0,0,0,0
0.794,0,0,0,0.996849475691826,0.079316598596582,-0,-0,0,0,0,0.2,0,0,0,0,0,0,0,0
0.795,0,0,0,0.996841539047732,0.0794162831474019,-0,-0,0,0,0,0.2,0,0,0,0,0,0,0,0
0.796,0,0,0,0.996833592435223,0.0795159669040591,-0,-0,0,0,0,0.2,0,0,0,0,0,0,0,0
0.797,0,0,0,0.996825635854378,0.0796156498655566,-0,-0,0,0,0,0.2,0,0,0,0,0,0,0,0
0.798,0,0,0,0.996817669305277,0.0797153320308976,-0,-0,0,0,0,0.2,0,0,0,0,0,0,0,0
0.799,0,0,0,0.996809692787998,0.0798150133990852,-0,-0,0,0,0,0.2,0,0,0,0,0,0,0,0
0.8,0,0,0,0.996801706302623,0.0799146939691228,-0,-0,0,0,0,0.2,0,0,0,0,0,0,0,0
0.801,0,0,0,0.996793709849231,0.0800143737400134,-0,-0,0,0,0,0.2,0,0,0,0,0,0,0,0
0.802,0,0,0,0.996785703427902,0.0801140527107602,-0,-0,0,0,0,0.2,0,0,0,0,0,0,0,0
0.803,0,0,0,0.996777687038716,0.0802137308803666,-0,-0,0,0,0,0.2,0,0,0,0,0,0,0,0
0.804,0,0,0,0.996769660681753,0.0803134082478356,-0,-0,0,0,0,0.2,0,0,0,0,0,0,0,0
0.805,0,0,0,0.996761624357093,0.0804130848121705,-0,-0,0,0,0,0.2,0,0,0,0,0,0,0,0
0.806,0,0,0,0.996753578064817,0.0805127605723746,-0,-0,0,0,0,0.2,0,0,0,0,0,0,0,0
0.807,0,0,0,0.996745521805006,0.0806124355274511,-0,-0,0,0,0,0.2,0,0,0,0,0,0,0,0
0.808,0,0,0,0.996737455577739,0.0807121096764032,-0,-0,0,0,0,0.2,0,0,0,0,0,0,0,0
0.809,0,0,0,0.996729379383097,0.0808117830182343,-0,-0,0,0,0,0.2,0,0,0,0,0,0,0,0
0.81,0,0,0,0.996721293221162,0.0809114555519475,-0,-0,0,0,0,0.2,0,0,0,0,0,0,0,0
0.811,0,0,0,0.996713197092014,0.0810111272765461,-0,-0,0,0,0,0.2,0,0,0,0,0,0,0,0
0.812,0,0,0,0.996705090995734,0.0811107981910336,-0,-0,0,0,0,0.2,0,0,0,0,0,0,0,0
0.813,0,0,0,0.996696974932403,0.0812104682944129,-0,-0,0,0,0,0.2,0,0,0,0,0,0,0,0
0.814,0,0,0,0.996688848902102,0.0813101375856877,-0,-0,0,0,0,0.2,0,0,0,0,0,0,0,0
0.815,0,0,0,0.996680712904912,0.081409806063861,-0,-0,0,0,0,0.2,0,0,0,0,0,0,0,0
0.816,0,0,0,0.996672566940916,0.0815094737279363,-0,-0,0,0,0,0.2,0,0,0,0,0,0,0,0
0.817,0,0,0,0.996664411010194,0.0816091405769169,-0,-0,0,0,0,0.2,0,0,0,0,0,0,0,0
0.818,0,0,0,0.996656245112828,0.081708806609806,-0,-0,0,0,0,0.2,0,0,0,0,0,0,0,0
0.819,0,0,0,0.996648069248899,0.0818084718256071,-0,-0,0,0,0,0.2,0,0,0,0,0,0,0,0
0.82,0,0,0,0.99663988341849,0.0819081362233234,-0,-0,0,0,0,0.2,0,0,0,0,0,0,0,0
0.821,0,0,0,0.996631687621682,0.0820077998019585,-0,-0,0,0,0,0.2,0,0,0,0,0,0,0,0
0.822,0,0,0,0.996623481858557,0.0821074625605154,-0,-0,0,0,0,0.2,0,0,0,0,0,0,0,0
0.823,0,0,0,0.996615266129197,0.0822071244979978,-0,-0,0,0,0,0.2,0,0,0,0,0,0,0,0
0.824,0,0,0,0.996607040433685,0.0823067856134089,-0,-0,0,0,0,0.2,0,0,0,0,0,0,0,0
0.825,0,0,0,0.996598804772102,0.0824064459057522,-0,-0,0,0,0,0.2,0,0,0,0,0,0,0,0
0.826,0,0,0,0.996590559144531,0.082506105374031,-0,-0,0,0,0,0.2,0,0,0,0,0,0,0,0
0.827,0,0,0,0.996582303551055,0.0826057640172488,-0,-0,0,0,0,0.2,0,0,0,0,0,0,0,0
0.828,0,0,0,0.996574037991755,0.0827054218344089,-0,-0,0,0,0,0.2,0,0,0,0,0,0,0,0
0.829,0,0,0,0.996565762466715,0.0828050788245148,-0,-0,0,0,0,0.2,0,0,0,0,0,0,0,0
0.83,0,0,0,0.996557476976018,0.08290473498657,-0,-0,0,0,0,0.2,0,0,0,0,0,0,0,0
0.831,0,0,0,0.996549181519746,0.0830043903195778,-0,-0,0,0,0,0.2,0,0,0,0,0,0,0,0
0.832,0,0,0,0.996540876097982,0.0831040448225416,-0,-0,0,0,0,0.2,0,0,0,0,0,0,0,0
0.833,0,0,0,0.996532560710809,0.083203698494465,-0,-0,0,0,0,0.2,0,0,0,0,0,0,0,0
0.834,0,0,0,0.996524235358311,0.0833033513343515,-0,-0,0,0,0,0.2,0,0,0,0,0,0,0,0
0.835,0,0,0,0.99651590004057,0.0834030033412044,-0,-0,0,0,0,0.2,0,0,0,0,0,0,0,0
0.836,0,0,0,0.99650755475767,0.0835026545140273,-0,-0,0,0,0,0.2,0,0,0,0,0,0,0,0
0.837,0,0,0,0.996499199509695,0.0836023048518236,-0,-0,0,0,0,0.2,0,0,0,0,0,0,0,0
0.838,0,0,0,0.996490834296728,0.0837019543535969,-0,-0,0,0,0,0.2,0,0,0,0,0,0,0,0
0.839,0,0,0,0.996482459118852,0.0838016030183507,-0,-0,0,0,0,0.2,0,0,0,0,0,0,0,0
0.84,0,0,0,0.996474073976152,0.0839012508450884,-0,-0,0,0,0,0.2,0,0,0,0,0,0,0,0
0.841,0,0,0,0.996465678868711,0.0840008978328136,-0,-0,0,0,0,0.2,0,0,0,0,0,0,0,0
0.842,0,0,0,0.996457273796613,0.0841005439805299,-0,-0,0,0,0,0.2,0,0,0,0,0,0,0,0
0.843,0,0,0,0.996448858759943,0.0842001892872407,-0,-0,0,0,0,0.2,0,0,0,0,0,0,0,0
0.844,0,0,0,0.996440433758784,0.0842998337519496,-0,-0,0,0,0,0.2,0,0,0,0,0,0,0,0
0.845,0,0,0,0.996431998793221,0.0843994773736602,-0,-0,0,0,0,0.2,0,0,0,0,0,0,0,0
0.846,0,0,0,0.996423553863338,0.084499120151376,-0,-0,0,0,0,0.2,0,0,0,0,0,0,0,0
0.847,0,0,0,0.996415098969219,0.0845987620841006,-0,-0,0,0,0,0.2,0,0,0,0,0,0,0,0
0.848,0,0,0,0.996406634110949,0.0846984031708375,-0,-0,0,0,0,0.2,0,0,0,0,0,0,0,0
0.849,0,0,0,0.996398159288613,0.0847980434105905,-0,-0,0,0,0,0.2,0,0,0,0,0,0,0,0
0.85,0,0,0,0.996389674502295,0.084897682802363,-0,-0,0,0,0,0.2,0,0,0,0,0,0,0,0
0.851,0,0,0,0.996381179752081,0.0849973213451587,-0,-0,0,0,0,0.2,0,0,0,0,0,0,0,0
0.852,0,0,0,0.996372675038054,0.0850969590379812,-0,-0,0,0,0,0.2,0,0,0,0,0,0,0,0
0.853,0,0,0,0.996364160360301,0.0851965958798341,-0,-0,0,0,0,0.2,0,0,0,0,0,0,0,0
0.854,0,0,0,0.996355635718907,0.085296231869721,-0,-0,0,0,0,0.2,0,0,0,0,0,0,0,0
0.855,0,0,0,0.996347101113956,0.0853958670066456,-0,-0,0,0,0,0.2,0,0,0,0,0,0,0,0
0.856,0,0,0,0.996338556545534,0.0854955012896115,-0,-0,0,0,0,0.2,0,0,0,0,0,0,0,0
0.857,0,0,0,0.996330002013726,0.0855951347176225,-0,-0,0,0,0,0.2,0,0,0,0,0,0,0,0
0.858,0,0,0,0.996321437518619,0.085694767289682,-0,-0,0,0,0,0.2,0,0,0,0,0,0,0,0
0.859,0,0,0,0.996312863060297,0.085794399004794,-0,-0,0,0,0,0.2,0,0,0,0,0,0,0,0
0.86,0,0,0,0.996304278638847,0.0858940298619619,-0,-0,0,0,0,0.2,0,0,0,0,0,0,0,0
0.861,0,0,0,0.996295684254353,0.0859936598601895,-0,-0,0,0,0,0.2,0,0,0,0,0,0,0,0
0.862,0,0,0,0.996287079906903,0.0860932889984805,-0,-0,0,0,0,0.2,0,0,0,0,0,0,0,0
0.863,0,0,0,0.996278465596582,0.0861929172758387,-0,-0,0,0,0,0.2,0,0,0,0,0,0,0,0
0.864,0,0,0,0.996269841323477,0.0862925446912676,-0,-0,0,0,0,0.2,0,0,0,0,0,0,0,0
0.865,0,0,0,0.996261207087673,0.0863921712437712,-0,-0,0,0,0,0.2,0,0,0,0,0,0,0,0
0.866,0,0,0,0.996252562889257,0.0864917969323529,-0,-0,0,0,0,0.2,0,0,0,0,0,0,0,0
0.867,0,0,0,0.996243908728315,0.0865914217560168,-0,-0,0,0,0,0.2,0,0,0,0,0,0,0,0
0.868,0,0,0,0.996235244604934,0.0866910457137664,-0,-0,0,0,0,0.2,0,0,0,0,0,0,0,0
0.869,0,0,0,0.996226570519201,0.0867906688046056,-0,-0,0,0,0,0.2,0,0,0,0,0,0,0,0
0.87,0,0,0,0.996217886471202,0.0868902910275381,-0,-0,0,0,0,0.2,0,0,0,0,0,0,0,0
0.871,0,0,0,0.996209192461025,0.0869899123815676,-0,-0,0,0,0,0.2,0,0,0,0,0,0,0,0
0.872,0,0,0,0.996200488488755,0.0870895328656981,-0,-0,0,0,0,0.2,0,0,0,0,0,0,0,0
0.873,0,0,0,0.996191774554481,0.0871891524789332,-0,-0,0,0,0,0.2,0,0,0,0,0,0,0,0
0.874,0,0,0,0.996183050658289,0.0872887712202768,-0,-0,0,0,0,0.2,0,0,0,0,0,0,0,0
0.875,0,0,0,0.996174316800266,0.0873883890887327,-0,-0,0,0,0,0.2,0,0,0,0,0,0,0,0
0.876,0,0,0,0.9961655729805,0.0874880060833047,-0,-0,0,0,0,0.2,0,0,0,0,0,0,0,0
0.877,0,0,0,0.996156819199078,0.0875876222029966,-0,-0,0,0,0,0.2,0,0,0,0,0,0,0,0
0.878,0,0,0,0.996148055456089,0.0876872374468123,-0,-0,0,0,0,0.2,0,0,0,0,0,0,0,0
0.879,0,0,0,0.996139281751618,0.0877868518137556,-0,-0,0,0,0,0.2,0,0,0,0,0,0,0,0
0.88,0,0,0,0.996130498085755,0.0878864653028305,-0,-0,0,0,0,0.2,0,0,0,0,0,0,0,0
0.881,0,0,0,0.996121704458587,0.0879860779130406,-0,-0,0,0,0,0.2,0,0,0,0,0,0,0,0
0.882,0,0,0,0.996112900870202,0.08808568964339,-0,-0,0,0,0,0.2,0,0,0,0,0,0,0,0
0.883,0,0,0,0.996104087320688,0.0881853004928825,-0,-0,0,0,0,0.2,0,0,0,0,0,0,0,0
0.884,0,0,0,0.996095263810133,0.088284910460522,-0,-0,0,0,0,0.2,0,0,0,0,0,0,0,0
0.885,0,0,0,0.996086430338625,0.0883845195453124,-0,-0,0,0,0,0.2,0,0,0,0,0,0,0,0
0.886,0,0,0,0.996077586906253,0.0884841277462576,-0,-0,0,0,0,0.2,0,0,0,0,0,0,0,0
0.887,0,0,0,0.996068733513105,0.0885837350623614,-0,-0,0,0,0,0.2,0,0,0,0,0,0,0,0
0.888,0,0,0,0.99605987015927,0.088683341492628,-0,-0,0,0,0,0.2,0,0,0,0,0,0,0,0
0.889,0,0,0,0.996050996844836,0.0887829470360612,-0,-0,0,0,0,0.2,0,0,0,0,0,0,0,0
0.89,0,0,0,0.996042113569893,0.0888825516916649,-0,-0,0,0,0,0.2,0,0,0,0,0,0,0,0
0.891,0,0,0,0.996033220334528,0.088982155458443,-0,-0,0,0,0,0.2,0,0,0,0,0,0,0,0
0.892,0,0,0,0.99602431713883,0.0890817583353996,-0,-0,0,0,0,0.2,0,0,0,0,0,0,0,0
0.893,0,0,0,0.99601540398289,0.0891813603215386,-0,-0,0,0,0,0.2,0,0,0,0,0,0,0,0
0.894,0,0,0,0.996006480866796,0.0892809614158641,-0,-0,0,0,0,0.2,0,0,0,0,0,0,0,0
0.895,0,0,0,0.995997547790637,0.0893805616173799,-0,-0,0,0,0,0.2,0,0,0,0,0,0,0,0
0.896,0,0,0,0.995988604754502,0.0894801609250901,-0,-0,0,0,0,0.2,0,0,0,0,0,0,0,0
0.897,0,0,0,0.995979651758482,0.0895797593379987,-0,-0,0,0,0,0.2,0,0,0,0,0,0,0,0
0.898,0,0,0,0.995970688802665,0.0896793568551097,-0,-0,0,0,0,0.2,0,0,0,0,0,0,0,0
0.899,0,0,0,0.99596171588714,0.0897789534754271,-0,-0,0,0,0,0.2,0,0,0,0,0,0,0,0
0.9,0,0,0,0.995952733011999,0.089878549197955,-0,-0,0,0,0,0.2,0,0,0,0,0,0,0,0
0.901,0,0,0,0.995943740177331,0.0899781440216973,-0,-0,0,0,0,0.2,0,0,0,0,0,0,0,0
0.902,0,0,0,0.995934737383225,0.0900777379456583,-0,-0,0,0,0,0.2,0,0,0,0,0,0,0,0
0.903,0,0,0,0.995925724629772,0.0901773309688419,-0,-0,0,0,0,0.2,0,0,0,0,0,0,0,0
0.904,0,0,0,0.995916701917061,0.0902769230902522,-0,-0,0,0,0,0.2,0,0,0,0,0,0,0,0
0.905,0,0,0,0.995907669245184,0.0903765143088932,-0,-0,0,0,0,0.2,0,0,0,0,0,0,0,0
0.906,0,0,0,0.99589862661423,0.0904761046237691,-0,-0,0,0,0,0.2,0,0,0,0,0,0,0,0
0.907,0,0,0,0.995889574024289,0.090575694033884,-0,-0,0,0,0,0.2,0,0,0,0,0,0,0,0
0.908,0,0,0,0.995880511475453,0.0906752825382419,-0,-0,0,0,0,0.2,0,0,0,0,0,0,0,0
0.909,0,0,0,0.995871438967812,0.090774870135847,-0,-0,0,0,0,0.2,0,0,0,0,0,0,0,0
0.91,0,0,0,0.995862356501456,0.0908744568257034,-0,-0,0,0,0,0.2,0,0,0,0,0,0,0,0
0.911,0,0,0,0.995853264076477,0.0909740426068152,-0,-0,0,0,0,0.2,0,0,0,0,0,0,0,0
0.912,0,0,0,0.995844161692965,0.0910736274781866,-0,-0,0,0,0,0.2,0,0,0,0,0,0,0,0
0.913,0,0,0,0.995835049351012,0.0911732114388217,-0,-0,0,0,0,0.2,0,0,0,0,0,0,0,0
0.914,0,0,0,0.995825927050708,0.0912727944877247,-0,-0,0,0,0,0.2,0,0,0,0,0,0,0,0
0.915,0,0,0,0.995816794792145,0.0913723766238998,-0,-0,0,0,0,0.2,0,0,0,0,0,0,0,0
0.916,0,0,0,0.995807652575413,0.0914719578463511,-0,-0,0,0,0,0.2,0,0,0,0,0,0,0,0
0.917,0,0,0,0.995798500400606,0.0915715381540828,-0,-0,0,0,0,0.2,0,0,0,0,0,0,0,0
0.918,0,0,0,0.995789338267813,0.0916711175460991,-0,-0,0,0,0,0.2,0,0,0,0,0,0,0,0
0.919,0,0,0,0.995780166177127,0.0917706960214043,-0,-0,0,0,0,0.2,0,0,0,0,0,0,0,0
0.92,0,0,0,0.99577098412864,0.0918702735790025,-0,-0,0,0,0,0.2,0,0,0,0,0,0,0,0
0.921,0,0,0,0.995761792122442,0.091969850217898,-0,-0,0,0,0,0.2,0,0,0,0,0,0,0,0
0.922,0,0,0,0.995752590158627,0.092069425937095,-0,-0,0,0,0,0.2,0,0,0,0,0,0,0,0
0.923,0,0,0,0.995743378237285,0.0921690007355977,-0,-0,0,0,0,0.2,0,0,0,0,0,0,0,0
0.924,0,0,0,0.99573415635851,0.0922685746124104,-0,-0,0,0,0,0.2,0,0,0,0,0,0,0,0
0.925,0,0,0,0.995724924522394,0.0923681475665374,-0,-0,0,0,0,0.2,0,0,0,0,0,0,0,0
0.926,0,0,0,0.995715682729028,0.0924677195969828,-0,-0,0,0,0,0.2,0,0,0,0,0,0,0,0
0.927,0,0,0,0.995706430978505,0.0925672907027511,-0,-0,0,0,0,0.2,0,0,0,0,0,0,0,0
0.928,0,0,0,0.995697169270918,0.0926668608828465,-0,-0,0,0,0,0.2,0,0,0,0,0,0,0,0
0.929,0,0,0,0.995687897606359,0.0927664301362733,-0,-0,0,0,0,0.2,0,0,0,0,0,0,0,0
0.93,0,0,0,0.995678615984922,0.0928659984620358,-0,-0,0,0,0,0.2,0,0,0,0,0,0,0,0
0.931,0,0,0,0.995669324406698,0.0929655658591383,-0,-0,0,0,0,0.2,0,0,0,0,0,0,0,0
0.932,0,0,0,0.995660022871781,0.0930651323265851,-0,-0,0,0,0,0.2,0,0,0,0,0,0,0,0
0.933,0,0,0,0.995650711380264,0.0931646978633806,-0,-0,0,0,0,0.2,0,0,0,0,0,0,0,0
0.934,0,0,0,0.995641389932239,0.0932642624685291,-0,-0,0,0,0,0.2,0,0,0,0,0,0,0,0
0.935,0,0,0,0.995632058527801,0.093363826141035,-0,-0,0,0,0,0.2,0,0,0,0,0,0,0,0
0.936,0,0,0,0.995622717167042,0.0934633888799027,-0,-0,0,0,0,0.2,0,0,0,0,0,0,0,0
0.937,0,0,0,0.995613365850056,0.0935629506841364,-0,-0,0,0,0,0.2,0,0,0,0,0,0,0,0
0.938,0,0,0,0.995604004576937,0.0936625115527407,-0,-0,0,0,0,0.2,0,0,0,0,0,0,0,0
0.939,0,0,0,0.995594633347777,0.0937620714847198,-0,-0,0,0,0,0.2,0,0,0,0,0,0,0,0
0.94,0,0,0,0.995585252162671,0.0938616304790783,-0,-0,0,0,0,0.2,0,0,0,0,0,0,0,0
0.941,0,0,0,0.995575861021712,0.0939611885348204,-0,-0,0,0,0,0.2,0,0,0,0,0,0,0,0
0.942,0,0,0,0.995566459924995,0.0940607456509506,-0,-0,0,0,0,0.2,0,0,0,0,0,0,0,0
0.943,0,0,0,0.995557048872614,0.0941603018264734,-0,-0,0,0,0,0.2,0,0,0,0,0,0,0,0
0.944,0,0,0,0.995547627864661,0.0942598570603932,-0,-0,0,0,0,0.2,0,0,0,0,0,0,0,0
0.945,0,0,0,0.995538196901233,0.0943594113517144,-0,-0,0,0,0,0.2,0,0,0,0,0,0,0,0
0.946,0,0,0,0.995528755982422,0.0944589646994414,-0,-0,0,0,0,0.2,0,0,0,0,0,0,0,0
0.947,0,0,0,0.995519305108325,0.0945585171025789,-0,-0,0,0,0,0.2,0,0,0,0,0,0,0,0
0.948,0,0,0,0.995509844279034,0.0946580685601311,-0,-0,0,0,0,0.2,0,0,0,0,0,0,0,0
0.949,0,0,0,0.995500373494644,0.0947576190711027,-0,-0,0,0,0,0.2,0,0,0,0,0,0,0,0
0.95,0,0,0,0.995490892755251,0.0948571686344981,-0,-0,0,0,0,0.2,0,0,0,0,0,0,0,0
0.951,0,0,0,0.995481402060949,0.0949567172493218,-0,-0,0,0,0,0.2,0,0,0,0,0,0,0,0
0.952,0,0,0,0.995471901411833,0.0950562649145783,-0,-0,0,0,0,0.2,0,0,0,0,0,0,0,0
0.953,0,0,0,0.995462390807998,0.0951558116292722,-0,-0,0,0,0,0.2,0,0,0,0,0,0,0,0
0.954,0,0,0,0.995452870249539,0.095255357392408,-0,-0,0,0,0,0.2,0,0,0,0,0,0,0,0
0.955,0,0,0,0.995443339736551,0.0953549022029902,-0,-0,0,0,0,0.2,0,0,0,0,0,0,0,0
0.956,0,0,0,0.99543379926913,0.0954544460600234,-0,-0,0,0,0,0.2,0,0,0,0,0,0,0,0
0.957,0,0,0,0.995424248847371,0.0955539889625121,-0,-0,0,0,0,0.2,0,0,0,0,0,0,0,0
0.958,0,0,0,0.995414688471369,0.0956535309094609,-0,-0,0,0,0,0.2,0,0,0,0,0,0,0,0
0.959,0,0,0,0.995405118141221,0.0957530718998744,-0,-0,0,0,0,0.2,0,0,0,0,0,0,0,0
0.96,0,0,0,0.995395537857021,0.0958526119327572,-0,-0,0,0,0,0.2,0,0,0,0,0,0,0,0
0.961,0,0,0,0.995385947618866,0.0959521510071139,-0,-0,0,0,0,0.2,0,0,0,0,0,0,0,0
0.962,0,0,0,0.995376347426852,0.0960516891219491,-0,-0,0,0,0,0.2,0,0,0,0,0,0,0,0
0.963,0,0,0,0.995366737281074,0.0961512262762674,-0,-0,0,0,0,0.2,0,0,0,0,0,0,0,0
0.964,0,0,0,0.995357117181628,0.0962507624690734,-0,-0,0,0,0,0.2,0,0,0,0,0,0,0,0
0.965,0,0,0,0.995347487128612,0.0963502976993718,-0,-0,0,0,0,0.2,0,0,0,0,0,0,0,0
0.966,0,0,0,0.995337847122121,0.0964498319661672,-0,-0,0,0,0,0.2,0,0,0,0,0,0,0,0
0.967,0,0,0,0.995328197162251,0.0965493652684643,-0,-0,0,0,0,0.2,0,0,0,0,0,0,0,0
0.968,0,0,0,0.995318537249099,0.0966488976052678,-0,-0,0,0,0,0.2,0,0,0,0,0,0,0,0
0.969,0,0,0,0.995308867382762,0.0967484289755822,-0,-0,0,0,0,0.2,0,0,0,0,0,0,0,0
0.97,0,0,0,0.995299187563336,0.0968479593784124,-0,-0,0,0,0,0.2,0,0,0,0,0,0,0,0
0.971,0,0,0,0.995289497790919,0.096947488812763,-0,-0,0,0,0,0.2,0,0,0,0,0,0,0,0
0.972,0,0,0,0.995279798065606,0.0970470172776387,-0,-0,0,0,0,0.2,0,0,0,0,0,0,0,0
0.973,0,0,0,0.995270088387496,0.0971465447720443,-0,-0,0,0,0,0.2,0,0,0,0,0,0,0,0
0.974,0,0,0,0.995260368756684,0.0972460712949844,-0,-0,0,0,0,0.2,0,0,0,0,0,0,0,0
0.975,0,0,0,0.995250639173269,0.0973455968454637,-0,-0,0,0,0,0.2,0,0,0,0,0,0,0,0
0.976,0,0,0,0.995240899637348,0.0974451214224871,-0,-0,0,0,0,0.2,0,0,0,0,0,0,0,0
0.977,0,0,0,0.995231150149017,0.0975446450250593,-0,-0,0,0,0,0.2,0,0,0,0,0,0,0,0
0.978,0,0,0,0.995221390708375,0.0976441676521851,-0,-0,0,0,0,0.2,0,0,0,0,0,0,0,0
0.979,0,0,0,0.995211621315519,0.0977436893028691,-0,-0,0,0,0,0.2,0,0,0,0,0,0,0,0
0.98,0,0,0,0.995201841970547,0.0978432099761163,-0,-0,0,0,0,0.2,0,0,0,0,0,0,0,0
0.981,0,0,0,0.995192052673557,0.0979427296709314,-0,-0,0,0,0,0.2,0,0,0,0,0,0,0,0
0.982,0,0,0,0.995182253424646,0.0980422483863192,-0,-0,0,0,0,0.2,0,0,0,0,0,0,0,0
0.983,0,0,0,0.995172444223912,0.0981417661212845,-0,-0,0,0,0,0.2,0,0,0,0,0,0,0,0
0.984,0,0,0,0.995162625071454,0.0982412828748321,-0,-0,0,0,0,0.2,0,0,0,0,0,0,0,0
0.985,0,0,0,0.99515279596737,0.0983407986459669,-0,-0,0,0,0,0.2,0,0,0,0,0,0,0,0
0.986,0,0,0,0.995142956911757,0.0984403134336937,-0,-0,0,0,0,0.2,0,0,0,0,0,0,0,0
0.987,0,0,0,0.995133107904716,0.0985398272370174,-0,-0,0,0,0,0.2,0,0,0,0,0,0,0,0
0.988,0,0,0,0.995123248946343,0.0986393400549428,-0,-0,0,0,0,0.2,0,0,0,0,0,0,0,0
0.989,0,0,0,0.995113380036738,0.0987388518864749,-0,-0,0,0,0,0.2,0,0,0,0,0,0,0,0
0.99,0,0,0,0.995103501175999,0.0988383627306184,-0,-0,0,0,0,0.2,0,0,0,0,0,0,0,0
0.991,0,0,0,0.995093612364225,0.0989378725863782,-0,-0,0,0,0,0.2,0,0,0,0,0,0,0,0
0.992,0,0,0,0.995083713601514,0.0990373814527594,-0,-0,0,0,0,0.2,0,0,0,0,0,0,0,0
0.993,0,0,0,0.995073804887967,0.0991368893287667,-0,-0,0,0,0,0.2,0,0,0,0,0,0,0,0
0.994,0,0,0,0.995063886223682,0.0992363962134052,-0,-0,0,0,0,0.2,0,0,0,0,0,0,0,0
0.995,0,0,0,0.995053957608757,0.0993359021056797,-0,-0,0,0,0,0.2,0,0,0,0,0,0,0,0
0.996,0,0,0,0.995044019043294,0.0994354070045951,-0,-0,0,0,0,0.2,0,0,0,0,0,0,0,0
0.997,0,0,0,0.99503407052739,0.0995349109091565,-0,-0,0,0,0,0.2,0,0,0,0,0,0,0,0
0.998,0,0,0,0.995024112061145,0.0996344138183688,-0,-0,0,0,0,0.2,0,0,0,0,0,0,0,0
0.999,0,0,0,0.995014143644659,0.0997339157312369,-0,-0,0,0,0,0.2,0,0,0,0,0,0,0,0
1,0,0,0,0.995004165278032,0.0998334166467659,-0,-0,0,0,0,0.2,0,0,0,0,0,0,0,0
1.001,0,0,0,0.994994176961363,0.0999329165639607,-0,-0,0,0,0,0.2,0,0,0,0,0,0,0,0
1.002,0,0,0,0.994984178694753,0.100032415481826,-0,-0,0,0,0,0.2,0,0,0,0,0,0,0,0
1.003,0,0,0,0.9949741704783,0.100131913399368,-0,-0,0,0,0,0.2,0,0,0,0,0,0,0,0
1.004,0,0,0,0.994964152312106,0.10023141031559,-0,-0,0,0,0,0.2,0,0,0,0,0,0,0,0
1.005,0,0,0,0.994954124196271,0.100330906229499,-0,-0,0,0,0,0.2,0,0,0,0,0,0,0,0
1.006,0,0,0,0.994944086130894,0.100430401140098,-0,-0,0,0,0,0.2,0,0,0,0,0,0,0,0
1.007,0,0,0,0.994934038116076,0.100529895046393,-0,-0,0,0,0,0.2,0,0,0,0,0,0,0,0
1.008,0,0,0,0.994923980151918,0.100629387947389,-0,-0,0,0,0,0.2,0,0,0,0,0,0,0,0
1.009,0,0,0,0.99491391223852,0.100728879842092,-0,-0,0,0,0,0.2,0,0,0,0,0,0,0,0
1.01,0,0,0,0.994903834375983,0.100828370729505,-0,-0,0,0,0,0.2,0,0,0,0,0,0,0,0
1.011,0,0,0,0.994893746564408,0.100927860608635,-0,-0,0,0,0,0.2,0,0,0,0,0,0,0,0
1.012,0,0,0,0.994883648803895,0.101027349478486,-0,-0,0,0,0,0.2,0,0,0,0,0,0,0,0
1.013,0,0,0,0.994873541094546,0.101126837338064,-0,-0,0,0,0,0.2,0,0,0,0,0,0,0,0
1.014,0,0,0,0.994863423436461,0.101226324186373,-0,-0,0,0,0,0.2,0,0,0,0,0,0,0,0
1.015,0,0,0,0.994853295829742,0.10132581002242,-0,-0,0,0,0,0.2,0,0,0,0,0,0,0,0
1.016,0,0,0,0.99484315827449,0.101425294845208,-0,-0,0,0,0,0.2,0,0,0,0,0,0,0,0
1.017,0,0,0,0.994833010770807,0.101524778653743,-0,-0,0,0,0,0.2,0,0,0,0,0,0,0,0
1.018,0,0,0,0.994822853318793,0.10162426144703,-0,-0,0,0,0,0.2,0,0,0,0,0,0,0,0
1.019,0,0,0,0.994812685918552,0.101723743224075,-0,-0,0,0,0,0.2,0,0,0,0,0,0,0,0
1.02,0,0,0,0.994802508570183,0.101823223983882,-0,-0,0,0,0,0.2,0,0,0,0,0,0,0,0
1.021,0,0,0,0.994792321273789,0.101922703725457,-0,-0,0,0,0,0.2,0,0,0,0,0,0,0,0
1.022,0,0,0,0.994782124029471,0.102022182447805,-0,-0,0,0,0,0.2,0,0,0,0,0,0,0,0
1.023,0,0,0,0.994771916837333,0.102121660149931,-0,-0,0,0,0,0.2,0,0,0,0,0,0,0,0
1.024,0,0,0,0.994761699697476,0.102221136830841,-0,-0,0,0,0,0.2,0,0,0,0,0,0,0,0
1.025,0,0,0,0.994751472610001,0.102320612489539,-0,-0,0,0,0,0.2,0,0,0,0,0,0,0,0
1.026,0,0,0,0.994741235575012,0.102420087125031,-0,-0,0,0,0,0.2,0,0,0,0,0,0,0,0
1.027,0,0,0,0.99473098859261,0.102519560736322,-0,-0,0,0,0,0.2,0,0,0,0,0,0,0,0
1.028,0,0,0,0.994720731662899,0.102619033322418,-0,-0,0,0,0,0.2,0,0,0,0,0,0,0,0
1.029,0,0,0,0.99471046478598,0.102718504882323,-0,-0,0,0,0,0.2,0,0,0,0,0,0,0,0
1.03,0,0,0,0.994700187961956,0.102817975415043,-0,-0,0,0,0,0.2,0,0,0,0,0,0,0,0
1.031,0,0,0,0.994689901190931,0.102917444919584,-0,-0,0,0,0,0.2,0,0,0,0,0,0,0,0
1.032,0,0,0,0.994679604473007,0.10301691339495,-0,-0,0,0,0,0.2,0,0,0,0,0,0,0,0
1.033,0,0,0,0.994669297808287,0.103116380840147,-0,-0,0,0,0,0.2,0,0,0,0,0,0,0,0
1.034,0,0,0,0.994658981196873,0.10321584725418,-0,-0,0,0,0,0.2,0,0,0,0,0,0,0,0
1.035,0,0,0,0.99464865463887,0.103315312636055,-0,-0,0,0,0,0.2,0,0,0,0,0,0,0,0
1.036,0,0,0,0.994638318134381,0.103414776984776,-0,-0,0,0,0,0.2,0,0,0,0,0,0,0,0
1.037,0,0,0,0.994627971683508,0.10351424029935,-0,-0,0,0,0,0.2,0,0,0,0,0,0,0,0
1.038,0,0,0,0.994617615286355,0.103613702578781,-0,-0,0,0,0,0.2,0,0,0,0,0,0,0,0
1.039,0,0,0,0.994607248943026,0.103713163822075,-0,-0,0,0,0,0.2,0,0,0,0,0,0,0,0
1.04,0,0,0,0.994596872653625,0.103812624028238,-0,-0,0,0,0,0.2,0,0,0,0,0,0,0,0
1.041,0,0,0,0.994586486418256,0.103912083196274,-0,-0,0,0,0,0.2,0,0,0,0,0,0,0,0
1.042,0,0,0,0.994576090237021,0.10401154132519,-0,-0,0,0,0,0.2,0,0,0,0,0,0,0,0
1.043,0,0,0,0.994565684110025,0.10411099841399,-0,-0,0,0,0,0.2,0,0,0,0,0,0,0,0
1.044,0,0,0,0.994555268037373,0.10421045446168,-0,-0,0,0,0,0.2,0,0,0,0,0,0,0,0
1.045,0,0,0,0.994544842019167,0.104309909467266,-0,-0,0,0,0,0.2,0,0,0,0,0,0,0,0
1.046,0,0,0,0.994534406055514,0.104409363429753,-0,-0,0,0,0,0.2,0,0,0,0,0,0,0,0
1.047,0,0,0,0.994523960146516,0.104508816348145,-0,-0,0,0,0,0.2,0,0,0,0,0,0,0,0
1.048,0,0,0,0.994513504292279,0.10460826822145,-0,-0,0,0,0,0.2,0,0,0,0,0,0,0,0
1.049,0,0,0,0.994503038492907,0.104707719048672,-0,-0,0,0,0,0.2,0,0,0,0,0,0,0,0
1.05,0,0,0,0.994492562748504,0.104807168828817,-0,-0,0,0,0,0.2,0,0,0,0,0,0,0,0
1.051,0,0,0,0.994482077059176,0.10490661756089,-0,-0,0,0,0,0.2,0,0,0,0,0,0,0,0
1.052,0,0,0,0.994471581425027,0.105006065243897,-0,-0,0,0,0,0.2,0,0,0,0,0,0,0,0
1.053,0,0,0,0.994461075846162,0.105105511876844,-0,-0,0,0,0,0.2,0,0,0,0,0,0,0,0
1.054,0,0,0,0.994450560322687,0.105204957458735,-0,-0,0,0,0,0.2,0,0,0,0,0,0,0,0
1.055,0,0,0,0.994440034854706,0.105304401988577,-0,-0,0,0,0,0.2,0,0,0,0,0,0,0,0
1.056,0,0,0,0.994429499442324,0.105403845465374,-0,-0,0,0,0,0.2,0,0,0,0,0,0,0,0
1.057,0,0,0,0.994418954085648,0.105503287888134,-0,-0,0,0,0,0.2,0,0,0,0,0,0,0,0
1.058,0,0,0,0.994408398784782,0.10560272925586,-0,-0,0,0,0,0.2,0,0,0,0,0,0,0,0
1.059,0,0,0,0.994397833539832,0.105702169567559,-0,-0,0,0,0,0.2,0,0,0,0,0,0,0,0
1.06,0,0,0,0.994387258350903,0.105801608822236,-0,-0,0,0,0,0.2,0,0,0,0,0,0,0,0
1.061,0,0,0,0.994376673218103,0.105901047018898,-0,-0,0,0,0,0.2,0,0,0,0,0,0,0,0
1.062,0,0,0,0.994366078141535,0.106000484156548,-0,-0,0,0,0,0.2,0,0,0,0,0,0,0,0
1.063,0,0,0,0.994355473121307,0.106099920234194,-0,-0,0,0,0,0.2,0,0,0,0,0,0,0,0
1.064,0,0,0,0.994344858157524,0.106199355250841,-0,-0,0,0,0,0.2,0,0,0,0,0,0,0,0
1.065,0,0,0,0.994334233250292,0.106298789205494,-0,-0,0,0,0,0.2,0,0,0,0,0,0,0,0
1.066,0,0,0,0.994323598399718,0.106398222097159,-0,-0,0,0,0,0.2,0,0,0,0,0,0,0,0
1.067,0,0,0,0.994312953605908,0.106497653924843,-0,-0,0,0,0,0.2,0,0,0,0,0,0,0,0
1.068,0,0,0,0.994302298868968,0.106597084687549,-0,-0,0,0,0,0.2,0,0,0,0,0,0,0,0
1.069,0,0,0,0.994291634189006,0.106696514384285,-0,-0,0,0,0,0.2,0,0,0,0,0,0,0,0
1.07,0,0,0,0.994280959566127,0.106795943014055,-0,-0,0,0,0,0.2,0,0,0,0,0,0,0,0
1.071,0,0,0,0.994270275000439,0.106895370575867,-0,-0,0,0,0,0.2,0,0,0,0,0,0,0,0
1.072,0,0,0,0.994259580492048,0.106994797068724,-0,-0,0,0,0,0.2,0,0,0,0,0,0,0,0
1.073,0,0,0,0.994248876041061,0.107094222491633,-0,-0,0,0,0,0.2,0,0,0,0,0,0,0,0
1.074,0,0,0,0.994238161647585,0.107193646843601,-0,-0,0,0,0,0.2,0,0,0,0,0,0,0,0
1.075,0,0,0,0.994227437311728,0.107293070123631,-0,-0,0,0,0,0.2,0,0,0,0,0,0,0,0
1.076,0,0,0,0.994216703033596,0.107392492330731,-0,-0,0,0,0,0.2,0,0,0,0,0,0,0,0
1.077,0,0,0,0.994205958813297,0.107491913463906,-0,-0,0,0,0,0.2,0,0,0,0,0,0,0,0
1.078,0,0,0,0.994195204650939,0.107591333522163,-0,-0,0,0,0,0.2,0,0,0,0,0,0,0,0
1.079,0,0,0,0.994184440546629,0.107690752504505,-0,-0,0,0,0,0.2,0,0,0,0,0,0,0,0
1.08,0,0,0,0.994173666500474,0.10779017040994,-0,-0,0,0,0,0.2,0,0,0,0,0,0,0,0
1.081,0,0,0,0.994162882512583,0.107889587237474,-0,-0,0,0,0,0.2,0,0,0,0,0,0,0,0
1.082,0,0,0,0.994152088583063,0.107989002986111,-0,-0,0,0,0,0.2,0,0,0,0,0,0,0,0
1.083,0,0,0,0.994141284712022,0.108088417654859,-0,-0,0,0,0,0.2,0,0,0,0,0,0,0,0
1.084,0,0,0,0.994130470899568,0.108187831242722,-0,-0,0,0,0,0.2,0,0,0,0,0,0,0,0
1.085,0,0,0,0.994119647145809,0.108287243748707,-0,-0,0,0,0,0.2,0,0,0,0,0,0,0,0
1.086,0,0,0,0.994108813450854,0.10838665517182,-0,-0,0,0,0,0.2,0,0,0,0,0,0,0,0
1.087,0,0,0,0.994097969814811,0.108486065511066,-0,-0,0,0,0,0.2,0,0,0,0,0,0,0,0
1.088,0,0,0,0.994087116237788,0.108585474765451,-0,-0,0,0,0,0.2,0,0,0,0,0,0,0,0
1.089,0,0,0,0.994076252719894,0.108684882933982,-0,-0,0,0,0,0.2,0,0,0,0,0,0,0,0
1.09,0,0,0,0.994065379261238,0.108784290015664,-0,-0,0,0,0,0.2,0,0,0,0,0,0,0,0
1.091,0,0,0,0.994054495861927,0.108883696009503,-0,-0,0,0,0,0.2,0,0,0,0,0,0,0,0
1.092,0,0,0,0.994043602522072,0.108983100914505,-0,-0,0,0,0,0.2,0,0,0,0,0,0,0,0
1.093,0,0,0,0.994032699241781,0.109082504729676,-0,-0,0,0,0,0.2,0,0,0,0,0,0,0,0
1.094,0,0,0,0.994021786021162,0.109181907454022,-0,-0,0,0,0,0.2,0,0,0,0,0,0,0,0
1.095,0,0,0,0.994010862860326,0.109281309086548,-0,-0,0,0,0,0.2,0,0,0,0,0,0,0,0
1.096,0,0,0,0.993999929759381,0.109380709626262,-0,-0,0,0,0,0.2,0,0,0,0,0,0,0,0
1.097,0,0,0,0.993988986718437,0.109480109072169,-0,-0,0,0,0,0.2,0,0,0,0,0,0,0,0
1.098,0,0,0,0.993978033737604,0.109579507423274,-0,-0,0,0,0,0.2,0,0,0,0,0,0,0,0
1.099,0,0,0,0.993967070816989,0.109678904678585,-0,-0,0,0,0,0.2,0,0,0,0,0,0,0,0
1.1,0,0,0,0.993956097956704,0.109778300837106,-0,-0,0,0,0,0.2,0,0,0,0,0,0,0,0
1.101,0,0,0,0.993945115156858,0.109877695897845,-0,-0,0,0,0,0.2,0,0,0,0,0,0,0,0
1.102,0,0,0,0.993934122417561,0.109977089859806,-0,-0,0,0,0,0.2,0,0,0,0,0,0,0,0
1.103,0,0,0,0.993923119738923,0.110076482721997,-0,-0,0,0,0,0.2,0,0,0,0,0,0,0,0
1.104,0,0,0,0.993912107121054,0.110175874483423,-0,-0,0,0,0,0.2,0,0,0,0,0,0,0,0
1.105,0,0,0,0.993901084564063,0.11027526514309,-0,-0,0,0,0,0.2,0,0,0,0,0,0,0,0
1.106,0,0,0,0.993890052068062,0.110374654700004,-0,-0,0,0,0,0.2,0,0,0,0,0,0,0,0
1.107,0,0,0,0.99387900963316,0.110474043153172,-0,-0,0,0,0,0.2,0,0,0,0,0,0,0,0
1.108,0,0,0,0.993867957259468,0.110573430501599,-0,-0,0,0,0,0.2,0,0,0,0,0,0,0,0
1.109,0,0,0,0.993856894947097,0.110672816744292,-0,-0,0,0,0,0.2,0,0,0,0,0,0,0,0
1.11,0,0,0,0.993845822696156,0.110772201880257,-0,-0,0,0,0,0.2,0,0,0,0,0,0,0,0
1.111,0,0,0,0.993834740506758,0.1108715859085,-0,-0,0,0,0,0.2,0,0,0,0,0,0,0,0
1.112,0,0,0,0.993823648379011,0.110970968828027,-0,-0,0,0,0,0.2,0,0,0,0,0,0,0,0
1.113,0,0,0,0.993812546313029,0.111070350637845,-0,-0,0,0,0,0.2,0,0,0,0,0,0,0,0
1.114,0,0,0,0.993801434308921,0.111169731336958,-0,-0,0,0,0,0.2,0,0,0,0,0,0,0,0
1.115,0,0,0,0.993790312366799,0.111269110924375,-0,-0,0,0,0,0.2,0,0,0,0,0,0,0,0
1.116,0,0,0,0.993779180486773,0.1113684893991,-0,-0,0,0,0,0.2,0,0,0,0,0,0,0,0
1.117,0,0,0,0.993768038668956,0.111467866760141,-0,-0,0,0,0,0.2,0,0,0,0,0,0,0,0
1.118,0,0,0,0.993756886913458,0.111567243006503,-0,-0,0,0,0,0.2,0,0,0,0,0,0,0,0
1.119,0,0,0,0.993745725220392,0.111666618137192,-0,-0,0,0,0,0.2,0,0,0,0,0,0,0,0
1.12,0,0,0,0.993734553589868,0.111765992151216,-0,-0,0,0,0,0.2,0,0,0,0,0,0,0,0
1.121,0,0,0,0.993723372021999,0.111865365047579,-0,-0,0,0,0,0.2,0,0,0,0,0,0,0,0
1.122,0,0,0,0.993712180516896,0.111964736825289,-0,-0,0,0,0,0.2,0,0,0,0,0,0,0,0
1.123,0,0,0,0.993700979074671,0.112064107483351,-0,-0,0,0,0,0.2,0,0,0,0,0,0,0,0
1.124,0,0,0,0.993689767695437,0.112163477020772,-0,-0,0,0,0,0.2,0,0,0,0,0,0,0,0
1.125,0,0,0,0.993678546379304,0.112262845436559,-0,-0,0,0,0,0.2,0,0,0,0,0,0,0,0
1.126,0,0,0,0.993667315126387,0.112362212729717,-0,-0,0,0,0,0.2,0,0,0,0,0,0,0,0
1.127,0,0,0,0.993656073936796,0.112461578899253,-0,-0,0,0,0,0.2,0,0,0,0,0,0,0,0
1.128,0,0,0,0.993644822810644,0.112560943944173,-0,-0,0,0,0,0.2,0,0,0,0,0,0,0,0
1.129,0,0,0,0.993633561748045,0.112660307863483,-0,-0,0,0,0,0.2,0,0,0,0,0,0,0,0
1.13,0,0,0,0.993622290749109,0.112759670656191,-0,-0,0,0,0,0.2,0,0,0,0,0,0,0,0
1.131,0,0,0,0.993611009813951,0.112859032321302,-0,-0,0,0,0,0.2,0,0,0,0,0,0,0,0
1.132,0,0,0,0.993599718942683,0.112958392857822,-0,-0,0,0,0,0.2,0,0,0,0,0,0,0,0
1.133,0,0,0,0.993588418135417,0.113057752264759,-0,-0,0,0,0,0.2,0,0,0,0,0,0,0,0
1.134,0,0,0,0.993577107392267,0.113157110541118,-0,-0,0,0,0,0.2,0,0,0,0,0,0,0,0
1.135,0,0,0,0.993565786713346,0.113256467685906,-0,-0,0,0,0,0.2,0,0,0,0,0,0,0,0
1.136,0,0,0,0.993554456098768,0.11335582369813,-0,-0,0,0,0,0.2,0,0,0,0,0,0,0,0
1.137,0,0,0,0.993543115548645,0.113455178576795,-0,-0,0,0,0,0.2,0,0,0,0,0,0,0,0
1.138,0,0,0,0.99353176506309,0.113554532320908,-0,-0,0,0,0,0.2,0,0,0,0,0,0,0,0
1.139,0,0,0,0.993520404642218,0.113653884929476,-0,-0,0,0,0,0.2,0,0,0,0,0,0,0,0
1.14,0,0,0,0.993509034286142,0.113753236401505,-0,-0,0,0,0,0.2,0,0,0,0,0,0,0,0
1.141,0,0,0,0.993497653994976,0.113852586736002,-0,-0,0,0,0,0.2,0,0,0,0,0,0,0,0
1.142,0,0,0,0.993486263768833,0.113951935931973,-0,-0,0,0,0,0.2,0,0,0,0,0,0,0,0
1.143,0,0,0,0.993474863607828,0.114051283988424,-0,-0,0,0,0,0.2,0,0,0,0,0,0,0,0
1.144,0,0,0,0.993463453512073,0.114150630904363,-0,-0,0,0,0,0.2,0,0,0,0,0,0,0,0
1.145,0,0,0,0.993452033481685,0.114249976678796,-0,-0,0,0,0,0.2,0,0,0,0,0,0,0,0
1.146,0,0,0,0.993440603516776,0.114349321310728,-0,-0,0,0,0,0.2,0,0,0,0,0,0,0,0
1.147,0,0,0,0.993429163617461,0.114448664799168,-0,-0,0,0,0,0.2,0,0,0,0,0,0,0,0
1.148,0,0,0,0.993417713783854,0.11454800714312,-0,-0,0,0,0,0.2,0,0,0,0,0,0,0,0
1.149,0,0,0,0.99340625401607,0.114647348341593,-0,-0,0,0,0,0.2,0,0,0,0,0,0,0,0
1.15,0,0,0,0.993394784314224,0.114746688393592,-0,-0,0,0,0,0.2,0,0,0,0,0,0,0,0
1.151,0,0,0,0.99338330467843,0.114846027298125,-0,-0,0,0,0,0.2,0,0,0,0,0,0,0,0
1.152,0,0,0,0.993371815108803,0.114945365054197,-0,-0,0,0,0,0.2,0,0,0,0,0,0,0,0
1.153,0,0,0,0.993360315605458,0.115044701660815,-0,-0,0,0,0,0.2,0,0,0,0,0,0,0,0
1.154,0,0,0,0.993348806168509,0.115144037116987,-0,-0,0,0,0,0.2,0,0,0,0,0,0,0,0
1.155,0,0,0,0.993337286798072,0.115243371421718,-0,-0,0,0,0,0.2,0,0,0,0,0,0,0,0
1.156,0,0,0,0.993325757494263,0.115342704574015,-0,-0,0,0,0,0.2,0,0,0,0,0,0,0,0
1.157,0,0,0,0.993314218257196,0.115442036572885,-0,-0,0,0,0,0.2,0,0,0,0,0,0,0,0
1.158,0,0,0,0.993302669086987,0.115541367417335,-0,-0,0,0,0,0.2,0,0,0,0,0,0,0,0
1.159,0,0,0,0.993291109983751,0.115640697106371,-0,-0,0,0,0,0.2,0,0,0,0,0,0,0,0
1.16,0,0,0,0.993279540947604,0.115740025639001,-0,-0,0,0,0,0.2,0,0,0,0,0,0,0,0
1.161,0,0,0,0.993267961978662,0.11583935301423,-0,-0,0,0,0,0.2,0,0,0,0,0,0,0,0
1.162,0,0,0,0.99325637307704,0.115938679231065,-0,-0,0,0,0,0.2,0,0,0,0,0,0,0,0
1.163,0,0,0,0.993244774242855,0.116038004288514,-0,-0,0,0,0,0.2,0,0,0,0,0,0,0,0
1.164,0,0,0,0.993233165476221,0.116137328185583,-0,-0,0,0,0,0.2,0,0,0,0,0,0,0,0
1.165,0,0,0,0.993221546777256,0.116236650921278,-0,-0,0,0,0,0.2,0,0,0,0,0,0,0,0
1.166,0,0,0,0.993209918146076,0.116335972494607,-0,-0,0,0,0,0.2,0,0,0,0,0,0,0,0
1.167,0,0,0,0.993198279582796,0.116435292904576,-0,-0,0,0,0,0.2,0,0,0,0,0,0,0,0
1.168,0,0,0,0.993186631087534,0.116534612150192,-0,-0,0,0,0,0.2,0,0,0,0,0,0,0,0
1.169,0,0,0,0.993174972660405,0.116633930230462,-0,-0,0,0,0,0.2,0,0,0,0,0,0,0,0
1.17,0,0,0,0.993163304301526,0.116733247144393,-0,-0,0,0,0,0.2,0,0,0,0,0,0,0,0
1.171,0,0,0,0.993151626011015,0.116832562890991,-0,-0,0,0,0,0.2,0,0,0,0,0,0,0,0
1.172,0,0,0,0.993139937788987,0.116931877469264,-0,-0,0,0,0,0.2,0,0,0,0,0,0,0,0
1.173,0,0,0,0.99312823963556,0.117031190878218,-0,-0,0,0,0,0.2,0,0,0,0,0,0,0,0
1.174,0,0,0,0.99311653155085,0.11713050311686,-0,-0,0,0,0,0.2,0,0,0,0,0,0,0,0
1.175,0,0,0,0.993104813534976,0.117229814184197,-0,-0,0,0,0,0.2,0,0,0,0,0,0,0,0
1.176,0,0,0,0.993093085588053,0.117329124079236,-0,-0,0,0,0,0.2,0,0,0,0,0,0,0,0
1.177,0,0,0,0.993081347710199,0.117428432800984,-0,-0,0,0,0,0.2,0,0,0,0,0,0,0,0
1.178,0,0,0,0.993069599901532,0.117527740348447,-0,-0,0,0,0,0.2,0,0,0,0,0,0,0,0
1.179,0,0,0,0.993057842162168,0.117627046720633,-0,-0,0,0,0,0.2,0,0,0,0,0,0,0,0
1.18,0,0,0,0.993046074492227,0.117726351916548,-0,-0,0,0,0,0.2,0,0,0,0,0,0,0,0
1.181,0,0,0,0.993034296891824,0.1178256559352,-0,-0,0,0,0,0.2,0,0,0,0,0,0,0,0
1.182,0,0,0,0.993022509361079,0.117924958775595,-0,-0,0,0,0,0.2,0,0,0,0,0,0,0,0
1.183,0,0,0,0.993010711900109,0.118024260436741,-0,-0,0,0,0,0.2,0,0,0,0,0,0,0,0
1.184,0,0,0,0.992998904509031,0.118123560917644,-0,-0,0,0,0,0.2,0,0,0,0,0,0,0,0
1.185,0,0,0,0.992987087187964,0.118222860217312,-0,-0,0,0,0,0.2,0,0,0,0,0,0,0,0
1.186,0,0,0,0.992975259937027,0.118322158334751,-0,-0,0,0,0,0.2,0,0,0,0,0,0,0,0
1.187,0,0,0,0.992963422756337,0.118421455268968,-0,-0,0,0,0,0.2,0,0,0,0,0,0,0,0
1.188,0,0,0,0.992951575646013,0.118520751018971,-0,-0,0,0,0,0.2,0,0,0,0,0,0,0,0
1.189,0,0,0,0.992939718606173,0.118620045583766,-0,-0,0,0,0,0.2,0,0,0,0,0,0,0,0
1.19,0,0,0,0.992927851636936,0.118719338962361,-0,-0,0,0,0,0.2,0,0,0,0,0,0,0,0
1.191,0,0,0,0.99291597473842,0.118818631153762,-0,-0,0,0,0,0.2,0,0,0,0,0,0,0,0
1.192,0,0,0,0.992904087910744,0.118917922156978,-0,-0,0,0,0,0.2,0,0,0,0,0,0,0,0
1.193,0,0,0,0.992892191154028,0.119017211971014,-0,-0,0,0,0,0.2,0,0,0,0,0,0,0,0
1.194,0,0,0,0.99288028446839,0.119116500594877,-0,-0,0,0,0,0.2,0,0,0,0,0,0,0,0
1.195,0,0,0,0.992868367853949,0.119215788027576,-0,-0,0,0,0,0.2,0,0,0,0,0,0,0,0
1.196,0,0,0,0.992856441310824,0.119315074268117,-0,-0,0,0,0,0.2,0,0,0,0,0,0,0,0
1.197,0,0,0,0.992844504839135,0.119414359315507,-0,-0,0,0,0,0.2,0,0,0,0,0,0,0,0
1.198,0,0,0,0.992832558439001,0.119513643168754,-0,-0,0,0,0,0.2,0,0,0,0,0,0,0,0
1.199,0,0,0,0.992820602110541,0.119612925826864,-0,-0,0,0,0,0.2,0,0,0,0,0,0,0,0
1.2,0,0,0,0.992808635853875,0.119712207288845,-0,-0,0,0,0,0.2,0,0,0,0,0,0,0,0
1.201,0,0,0,0.992796659669123,0.119811487553704,-0,-0,0,0,0,0.2,0,0,0,0,0,0,0,0
1.202,0,0,0,0.992784673556405,0.119910766620448,-0,-0,0,0,0,0.2,0,0,0,0,0,0,0,0
1.203,0,0,0,0.992772677515839,0.120010044488084,-0,-0,0,0,0,0.2,0,0,0,0,0,0,0,0
1.204,0,0,0,0.992760671547547,0.12010932115562,-0,-0,0,0,0,0.2,0,0,0,0,0,0,0,0
1.205,0,0,0,0.992748655651648,0.120208596622062,-0,-0,0,0,0,0.2,0,0,0,0,0,0,0,0
1.206,0,0,0,0.992736629828263,0.120307870886419,-0,-0,0,0,0,0.2,0,0,0,0,0,0,0,0
1.207,0,0,0,0.992724594077511,0.120407143947697,-0,-0,0,0,0,0.2,0,0,0,0,0,0,0,0
1.208,0,0,0,0.992712548399513,0.120506415804903,-0,-0,0,0,0,0.2,0,0,0,0,0,0,0,0
1.209,0,0,0,0.99270049279439,0.120605686457046,-0,-0,0,0,0,0.2,0,0,0,0,0,0,0,0
1.21,0,0,0,0.992688427262262,0.120704955903131,-0,-0,0,0,0,0.2,0,0,0,0,0,0,0,0
1.211,0,0,0,0.99267635180325,0.120804224142167,-0,-0,0,0,0,0.2,0,0,0,0,0,0,0,0
1.212,0,0,0,0.992664266417474,0.120903491173161,-0,-0,0,0,0,0.2,0,0,0,0,0,0,0,0
1.213,0,0,0,0.992652171105055,0.12100275699512,-0,-0,0,0,0,0.2,0,0,0,0,0,0,0,0
1.214,0,0,0,0.992640065866115,0.121102021607051,-0,-0,0,0,0,0.2,0,0,0,0,0,0,0,0
1.215,0,0,0,0.992627950700774,0.121201285007962,-0,-0,0,0,0,0.2,0,0,0,0,0,0,0,0
1.216,0,0,0,0.992615825609154,0.12130054719686,-0,-0,0,0,0,0.2,0,0,0,0,0,0,0,0
1.217,0,0,0,0.992603690591375,0.121399808172753,-0,-0,0,0,0,0.2,0,0,0,0,0,0,0,0
1.218,0,0,0,0.99259154564756,0.121499067934647,-0,-0,0,0,0,0.2,0,0,0,0,0,0,0,0
1.219,0,0,0,0.992579390777829,0.121598326481551,-0,-0,0,0,0,0.2,0,0,0,0,0,0,0,0
1.22,0,0,0,0.992567225982304,0.121697583812472,-0,-0,0,0,0,0.2,0,0,0,0,0,0,0,0
1.221,0,0,0,0.992555051261107,0.121796839926417,-0,-0,0,0,0,0.2,0,0,0,0,0,0,0,0
1.222,0,0,0,0.99254286661436,0.121896094822393,-0,-0,0,0,0,0.2,0,0,0,0,0,0,0,0
1.223,0,0,0,0.992530672042183,0.121995348499409,-0,-0,0,0,0,0.2,0,0,0,0,0,0,0,0
1.224,0,0,0,0.9925184675447,0.122094600956471,-0,-0,0,0,0,0.2,0,0,0,0,0,0,0,0
1.225,0,0,0,0.992506253122033,0.122193852192587,-0,-0,0,0,0,0.2,0,0,0,0,0,0,0,0
1.226,0,0,0,0.992494028774303,0.122293102206764,-0,-0,0,0,0,0.2,0,0,0,0,0,0,0,0
1.227,0,0,0,0.992481794501632,0.122392350998011,-0,-0,0,0,0,0.2,0,0,0,0,0,0,0,0
1.228,0,0,0,0.992469550304144,0.122491598565334,-0,-0,0,0,0,0.2,0,0,0,0,0,0,0,0
1.229,0,0,0,0.99245729618196,0.12259084490774,-0,-0,0,0,0,0.2,0,0,0,0,0,0,0,0
1.23,0,0,0,0.992445032135203,0.122690090024239,-0,-0,0,0,0,0.2,0,0,0,0,0,0,0,0
1.231,0,0,0,0.992432758163996,0.122789333913837,-0,-0,0,0,0,0.2,0,0,0,0,0,0,0,0
1.232,0,0,0,0.992420474268461,0.122888576575541,-0,-0,0,0,0,0.2,0,0,0,0,0,0,0,0
1.233,0,0,0,0.992408180448722,0.122987818008359,-0,-0,0,0,0,0.2,0,0,0,0,0,0,0,0
1.234,0,0,0,0.9923958767049,0.1230870582113,-0,-0,0,0,0,0.2,0,0,0,0,0,0,0,0
1.235,0,0,0,0.992383563037121,0.123186297183369,-0,-0,0,0,0,0.2,0,0,0,0,0,0,0,0
1.236,0,0,0,0.992371239445505,0.123285534923576,-0,-0,0,0,0,0.2,0,0,0,0,0,0,0,0
1.237,0,0,0,0.992358905930177,0.123384771430928,-0,-0,0,0,0,0.2,0,0,0,0,0,0,0,0
1.238,0,0,0,0.99234656249126,0.123484006704431,-0,-0,0,0,0,0.2,0,0,0,0,0,0,0,0
1.239,0,0,0,0.992334209128877,0.123583240743095,-0,-0,0,0,0,0.2,0,0,0,0,0,0,0,0
1.24,0,0,0,0.992321845843153,0.123682473545926,-0,-0,0,0,0,0.2,0,0,0,0,0,0,0,0
1.241,0,0,0,0.992309472634209,0.123781705111933,-0,-0,0,0,0,0.2,0,0,0,0,0,0,0,0
1.242,0,0,0,0.992297089502171,0.123880935440122,-0,-0,0,0,0,0.2,0,0,0,0,0,0,0,0
1.243,0,0,0,0.992284696447163,0.123980164529502,-0,-0,0,0,0,0.2,0,0,0,0,0,0,0,0
1.244,0,0,0,0.992272293469307,0.124079392379081,-0,-0,0,0,0,0.2,0,0,0,0,0,0,0,0
1.245,0,0,0,0.992259880568728,0.124178618987865,-0,-0,0,0,0,0.2,0,0,0,0,0,0,0,0
1.246,0,0,0,0.992247457745551,0.124277844354863,-0,-0,0,0,0,0.2,0,0,0,0,0,0,0,0
1.247,0,0,0,0.992235024999899,0.124377068479083,-0,-0,0,0,0,0.2,0,0,0,0,0,0,0,0
1.248,0,0,0,0.992222582331896,0.124476291359533,-0,-0,0,0,0,0.2,0,0,0,0,0,0,0,0
1.249,0,0,0,0.992210129741668,0.124575512995219,-0,-0,0,0,0,0.2,0,0,0,0,0,0,0,0
1.25,0,0,0,0.992197667229339,0.12467473338515,-0,-0,0,0,0,0.2,0,0,0,0,0,0,0,0
1.251,0,0,0,0.992185194795033,0.124773952528334,-0,-0,0,0,0,0.2,0,0,0,0,0,0,0,0
1.252,0,0,0,0.992172712438875,0.124873170423778,-0,-0,0,0,0,0.2,0,0,0,0,0,0,0,0
1.253,0,0,0,0.99216022016099,0.124972387070491,-0,-0,0,0,0,0.2,0,0,0,0,0,0,0,0
1.254,0,0,0,0.992147717961502,0.12507160246748,-0,-0,0,0,0,0.2,0,0,0,0,0,0,0,0
1.255,0,0,0,0.992135205840538,0.125170816613752,-0,-0,0,0,0,0.2,0,0,0,0,0,0,0,0
1.256,0,0,0,0.992122683798221,0.125270029508317,-0,-0,0,0,0,0.2,0,0,0,0,0,0,0,0
1.257,0,0,0,0.992110151834678,0.125369241150181,-0,-0,0,0,0,0.2,0,0,0,0,0,0,0,0
1.258,0,0,0,0.992097609950033,0.125468451538353,-0,-0,0,0,0,0.2,0,0,0,0,0,0,0,0
1.259,0,0,0,0.992085058144412,0.12556766067184,-0,-0,0,0,0,0.2,0,0,0,0,0,0,0,0
1.26,0,0,0,0.992072496417941,0.125666868549651,-0,-0,0,0,0,0.2,0,0,0,0,0,0,0,0
1.261,0,0,0,0.992059924770744,0.125766075170793,-0,-0,0,0,0,0.2,0,0,0,0,0,0,0,0
1.262,0,0,0,0.992047343202948,0.125865280534274,-0,-0,0,0,0,0.2,0,0,0,0,0,0,0,0
1.263,0,0,0,0.992034751714679,0.125964484639103,-0,-0,0,0,0,0.2,0,0,0,0,0,0,0,0
1.264,0,0,0,0.992022150306063,0.126063687484287,-0,-0,0,0,0,0.2,0,0,0,0,0,0,0,0
1.265,0,0,0,0.992009538977224,0.126162889068833,-0,-0,0,0,0,0.2,0,0,0,0,0,0,0,0
1.266,0,0,0,0.991996917728291,0.126262089391751,-0,-0,0,0,0,0.2,0,0,0,0,0,0,0,0
1.267,0,0,0,0.991984286559388,0.126361288452048,-0,-0,0,0,0,0.2,0,0,0,0,0,0,0,0
1.268,0,0,0,0.991971645470643,0.126460486248732,-0,-0,0,0,0,0.2,0,0,0,0,0,0,0,0
1.269,0,0,0,0.991958994462181,0.126559682780812,-0,-0,0,0,0,0.2,0,0,0,0,0,0,0,0
1.27,0,0,0,0.991946333534129,0.126658878047294,-0,-0,0,0,0,0.2,0,0,0,0,0,0,0,0
1.271,0,0,0,0.991933662686613,0.126758072047188,-0,-0,0,0,0,0.2,0,0,0,0,0,0,0,0
1.272,0,0,0,0.991920981919761,0.1268572647795,-0,-0,0,0,0,0.2,0,0,0,0,0,0,0,0
1.273,0,0,0,0.9919082912337,0.126956456243241,-0,-0,0,0,0,0.2,0,0,0,0,0,0,0,0
1.274,0,0,0,0.991895590628555,0.127055646437416,-0,-0,0,0,0,0.2,0,0,0,0,0,0,0,0
1.275,0,0,0,0.991882880104455,0.127154835361036,-0,-0,0,0,0,0.2,0,0,0,0,0,0,0,0
1.276,0,0,0,0.991870159661525,0.127254023013107,-0,-0,0,0,0,0.2,0,0,0,0,0,0,0,0
1.277,0,0,0,0.991857429299894,0.127353209392637,-0,-0,0,0,0,0.2,0,0,0,0,0,0,0,0
1.278,0,0,0,0.991844689019689,0.127452394498636,-0,-0,0,0,0,0.2,0,0,0,0,0,0,0,0
1.279,0,0,0,0.991831938821037,0.12755157833011,-0,-0,0,0,0,0.2,0,0,0,0,0,0,0,0
1.28,0,0,0,0.991819178704066,0.127650760886069,-0,-0,0,0,0,0.2,0,0,0,0,0,0,0,0
1.281,0,0,0,0.991806408668903,0.127749942165521,-0,-0,0,0,0,0.2,0,0,0,0,0,0,0,0
1.282,0,0,0,0.991793628715675,0.127849122167472,-0,-0,0,0,0,0.2,0,0,0,0,0,0,0,0
1.283,0,0,0,0.991780838844512,0.127948300890933,-0,-0,0,0,0,0.2,0,0,0,0,0,0,0,0
1.284,0,0,0,0.99176803905554,0.128047478334911,-0,-0,0,0,0,0.2,0,0,0,0,0,0,0,0
1.285,0,0,0,0.991755229348887,0.128146654498413,-0,-0,0,0,0,0.2,0,0,0,0,0,0,0,0
1.286,0,0,0,0.991742409724683,0.12824582938045,-0,-0,0,0,0,0.2,0,0,0,0,0,0,0,0
1.287,0,0,0,0.991729580183054,0.128345002980028,-0,-0,0,0,0,0.2,0,0,0,0,0,0,0,0
1.288,0,0,0,0.99171674072413,0.128444175296156,-0,-0,0,0,0,0.2,0,0,0,0,0,0,0,0
1.289,0,0,0,0.991703891348038,0.128543346327842,-0,-0,0,0,0,0.2,0,0,0,0,0,0,0,0
1.29,0,0,0,0.991691032054907,0.128642516074094,-0,-0,0,0,0,0.2,0,0,0,0,0,0,0,0
1.291,0,0,0,0.991678162844866,0.128741684533922,-0,-0,0,0,0,0.2,0,0,0,0,0,0,0,0
1.292,0,0,0,0.991665283718043,0.128840851706333,-0,-0,0,0,0,0.2,0,0,0,0,0,0,0,0
1.293,0,0,0,0.991652394674567,0.128940017590335,-0,-0,0,0,0,0.2,0,0,0,0,0,0,0,0
1.294,0,0,0,0.991639495714568,0.129039182184937,-0,-0,0,0,0,0.2,0,0,0,0,0,0,0,0
1.295,0,0,0,0.991626586838174,0.129138345489147,-0,-0,0,0,0,0.2,0,0,0,0,0,0,0,0
1.296,0,0,0,0.991613668045513,0.129237507501974,-0,-0,0,0,0,0.2,0,0,0,0,0,0,0,0
1.297,0,0,0,0.991600739336716,0.129336668222426,-0,-0,0,0,0,0.2,0,0,0,0,0,0,0,0
1.298,0,0,0,0.991587800711912,0.129435827649511,-0,-0,0,0,0,0.2,0,0,0,0,0,0,0,0
1.299,0,0,0,0.99157485217123,0.129534985782237,-0,-0,0,0,0,0.2,0,0,0,0,0,0,0,0
1.3,0,0,0,0.991561893714799,0.129634142619614,-0,-0,0,0,0,0.2,0,0,0,0,0,0,0,0
1.301,0,0,0,0.991548925342749,0.12973329816065,-0,-0,0,0,0,0.2,0,0,0,0,0,0,0,0
1.302,0,0,0,0.99153594705521,0.129832452404352,-0,-0,0,0,0,0.2,0,0,0,0,0,0,0,0
1.303,0,0,0,0.991522958852311,0.12993160534973,-0,-0,0,0,0,0.2,0,0,0,0,0,0,0,0
1.304,0,0,0,0.991509960734183,0.130030756995792,-0,-0,0,0,0,0.2,0,0,0,0,0,0,0,0
1.305,0,0,0,0.991496952700955,0.130129907341546,-0,-0,0,0,0,0.2,0,0,0,0,0,0,0,0
1.306,0,0,0,0.991483934752758,0.130229056386002,-0,-0,0,0,0,0.2,0,0,0,0,0,0,0,0
1.307,0,0,0,0.991470906889722,0.130328204128166,-0,-0,0,0,0,0.2,0,0,0,0,0,0,0,0
1.308,0,0,0,0.991457869111976,0.130427350567049,-0,-0,0,0,0,0.2,0,0,0,0,0,0,0,0
1.309,0,0,0,0.991444821419652,0.130526495701658,-0,-0,0,0,0,0.2,0,0,0,0,0,0,0,0
1.31,0,0,0,0.991431763812879,0.130625639531002,-0,-0,0,0,0,0.2,0,0,0,0,0,0,0,0
1.311,0,0,0,0.991418696291789,0.13072478205409,-0,-0,0,0,0,0.2,0,0,0,0,0,0,0,0
1.312,0,0,0,0.991405618856512,0.13082392326993,-0,-0,0,0,0,0.2,0,0,0,0,0,0,0,0
1.313,0,0,0,0.991392531507179,0.130923063177531,-0,-0,0,0,0,0.2,0,0,0,0,0,0,0,0
1.314,0,0,0,0.99137943424392,0.131022201775901,-0,-0,0,0,0,0.2,0,0,0,0,0,0,0,0
1.315,0,0,0,0.991366327066867,0.131121339064049,-0,-0,0,0,0,0.2,0,0,0,0,0,0,0,0
1.316,0,0,0,0.991353209976151,0.131220475040984,-0,-0,0,0,0,0.2,0,0,0,0,0,0,0,0
1.317,0,0,0,0.991340082971903,0.131319609705714,-0,-0,0,0,0,0.2,0,0,0,0,0,0,0,0
1.318,0,0,0,0.991326946054254,0.131418743057247,-0,-0,0,0,0,0.2,0,0,0,0,0,0,0,0
1.319,0,0,0,0.991313799223335,0.131517875094594,-0,-0,0,0,0,0.2,0,0,0,0,0,0,0,0
1.32,0,0,0,0.991300642479279,0.131617005816761,-0,-0,0,0,0,0.2,0,0,0,0,0,0,0,0
1.321,0,0,0,0.991287475822216,0.131716135222759,-0,-0,0,0,0,0.2,0,0,0,0,0,0,0,0
1.322,0,0,0,0.991274299252278,0.131815263311595,-0,-0,0,0,0,0.2,0,0,0,0,0,0,0,0
1.323,0,0,0,0.991261112769597,0.131914390082279,-0,-0,0,0,0,0.2,0,0,0,0,0,0,0,0
1.324,0,0,0,0.991247916374306,0.132013515533819,-0,-0,0,0,0,0.2,0,0,0,0,0,0,0,0
1.325,0,0,0,0.991234710066535,0.132112639665223,-0,-0,0,0,0,0.2,0,0,0,0,0,0,0,0
1.326,0,0,0,0.991221493846417,0.132211762475502,-0,-0,0,0,0,0.2,0,0,0,0,0,0,0,0
1.327,0,0,0,0.991208267714084,0.132310883963662,-0,-0,0,0,0,0.2,0,0,0,0,0,0,0,0
1.328,0,0,0,0.991195031669668,0.132410004128714,-0,-0,0,0,0,0.2,0,0,0,0,0,0,0,0
1.329,0,0,0,0.991181785713302,0.132509122969665,-0,-0,0,0,0,0.2,0,0,0,0,0,0,0,0
1.33,0,0,0,0.991168529845118,0.132608240485526,-0,-0,0,0,0,0.2,0,0,0,0,0,0,0,0
1.331,0,0,0,0.991155264065249,0.132707356675304,-0,-0,0,0,0,0.2,0,0,0,0,0,0,0,0
1.332,0,0,0,0.991141988373827,0.132806471538008,-0,-0,0,0,0,0.2,0,0,0,0,0,0,0,0
1.333,0,0,0,0.991128702770986,0.132905585072648,-0,-0,0,0,0,0.2,0,0,0,0,0,0,0,0
1.334,0,0,0,0.991115407256857,0.133004697278232,-0,-0,0,0,0,0.2,0,0,0,0,0,0,0,0
1.335,0,0,0,0.991102101831575,0.133103808153769,-0,-0,0,0,0,0.2,0,0,0,0,0,0,0,0
1.336,0,0,0,0.991088786495271,0.133202917698268,-0,-0,0,0,0,0.2,0,0,0,0,0,0,0,0
1.337,0,0,0,0.991075461248079,0.133302025910738,-0,-0,0,0,0,0.2,0,0,0,0,0,0,0,0
1.338,0,0,0,0.991062126090133,0.133401132790187,-0,-0,0,0,0,0.2,0,0,0,0,0,0,0,0
1.339,0,0,0,0.991048781021566,0.133500238335625,-0,-0,0,0,0,0.2,0,0,0,0,0,0,0,0
1.34,0,0,0,0.99103542604251,0.133599342546061,-0,-0,0,0,0,0.2,0,0,0,0,0,0,0,0
1.341,0,0,0,0.991022061153101,0.133698445420503,-0,-0,0,0,0,0.2,0,0,0,0,0,0,0,0
1.342,0,0,0,0.991008686353471,0.133797546957961,-0,-0,0,0,0,0.2,0,0,0,0,0,0,0,0
1.343,0,0,0,0.990995301643754,0.133896647157444,-0,-0,0,0,0,0.2,0,0,0,0,0,0,0,0
1.344,0,0,0,0.990981907024084,0.133995746017959,-0,-0,0,0,0,0.2,0,0,0,0,0,0,0,0
1.345,0,0,0,0.990968502494595,0.134094843538518,-0,-0,0,0,0,0.2,0,0,0,0,0,0,0,0
1.346,0,0,0,0.990955088055421,0.134193939718128,-0,-0,0,0,0,0.2,0,0,0,0,0,0,0,0
1.347,0,0,0,0.990941663706696,0.134293034555798,-0,-0,0,0,0,0.2,0,0,0,0,0,0,0,0
1.348,0,0,0,0.990928229448555,0.134392128050539,-0,-0,0,0,0,0.2,0,0,0,0,0,0,0,0
1.349,0,0,0,0.990914785281131,0.134491220201358,-0,-0,0,0,0,0.2,0,0,0,0,0,0,0,0
1.35,0,0,0,0.990901331204559,0.134590311007265,-0,-0,0,0,0,0.2,0,0,0,0,0,0,0,0
1.351,0,0,0,0.990887867218974,0.134689400467268,-0,-0,0,0,0,0.2,0,0,0,0,0,0,0,0
1.352,0,0,0,0.990874393324511,0.134788488580378,-0,-0,0,0,0,0.2,0,0,0,0,0,0,0,0
1.353,0,0,0,0.990860909521303,0.134887575345603,-0,-0,0,0,0,0.2,0,0,0,0,0,0,0,0
1.354,0,0,0,0.990847415809487,0.134986660761952,-0,-0,0,0,0,0.2,0,0,0,0,0,0,0,0
1.355,0,0,0,0.990833912189196,0.135085744828434,-0,-0,0,0,0,0.2,0,0,0,0,0,0,0,0
1.356,0,0,0,0.990820398660566,0.135184827544059,-0,-0,0,0,0,0.2,0,0,0,0,0,0,0,0
1.357,0,0,0,0.990806875223732,0.135283908907836,-0,-0,0,0,0,0.2,0,0,0,0,0,0,0,0
1.358,0,0,0,0.99079334187883,0.135382988918774,-0,-0,0,0,0,0.2,0,0,0,0,0,0,0,0
1.359,0,0,0,0.990779798625994,0.135482067575881,-0,-0,0,0,0,0.2,0,0,0,0,0,0,0,0
1.36,0,0,0,0.99076624546536,0.135581144878168,-0,-0,0,0,0,0.2,0,0,0,0,0,0,0,0
1.361,0,0,0,0.990752682397063,0.135680220824644,-0,-0,0,0,0,0.2,0,0,0,0,0,0,0,0
1.362,0,0,0,0.99073910942124,0.135779295414317,-0,-0,0,0,0,0.2,0,0,0,0,0,0,0,0
1.363,0,0,0,0.990725526538026,0.135878368646198,-0,-0,0,0,0,0.2,0,0,0,0,0,0,0,0
1.364,0,0,0,0.990711933747556,0.135977440519295,-0,-0,0,0,0,0.2,0,0,0,0,0,0,0,0
1.365,0,0,0,0.990698331049967,0.136076511032617,-0,-0,0,0,0,0.2,0,0,0,0,0,0,0,0
1.366,0,0,0,0.990684718445395,0.136175580185174,-0,-0,0,0,0,0.2,0,0,0,0,0,0,0,0
1.367,0,0,0,0.990671095933975,0.136274647975976,-0,-0,0,0,0,0.2,0,0,0,0,0,0,0,0
1.368,0,0,0,0.990657463515845,0.136373714404031,-0,-0,0,0,0,0.2,0,0,0,0,0,0,0,0
1.369,0,0,0,0.99064382119114,0.136472779468349,-0,-0,0,0,0,0.2,0,0,0,0,0,0,0,0
1.37,0,0,0,0.990630168959997,0.136571843167939,-0,-0,0,0,0,0.2,0,0,0,0,0,0,0,0
1.371,0,0,0,0.990616506822552,0.13667090550181,-0,-0,0,0,0,0.2,0,0,0,0,0,0,0,0
1.372,0,0,0,0.990602834778942,0.136769966468973,-0,-0,0,0,0,0.2,0,0,0,0,0,0,0,0
1.373,0,0,0,0.990589152829304,0.136869026068436,-0,-0,0,0,0,0.2,0,0,0,0,0,0,0,0
1.374,0,0,0,0.990575460973774,0.136968084299208,-0,-0,0,0,0,0.2,0,0,0,0,0,0,0,0
1.375,0,0,0,0.99056175921249,0.1370671411603,-0,-0,0,0,0,0.2,0,0,0,0,0,0,0,0
1.376,0,0,0,0.990548047545588,0.137166196650721,-0,-0,0,0,0,0.2,0,0,0,0,0,0,0,0
1.377,0,0,0,0.990534325973205,0.137265250769479,-0,-0,0,0,0,0.2,0,0,0,0,0,0,0,0
1.378,0,0,0,0.99052059449548,0.137364303515585,-0,-0,0,0,0,0.2,0,0,0,0,0,0,0,0
1.379,0,0,0,0.990506853112548,0.137463354888048,-0,-0,0,0,0,0.2,0,0,0,0,0,0,0,0
1.38,0,0,0,0.990493101824548,0.137562404885877,-0,-0,0,0,0,0.2,0,0,0,0,0,0,0,0
1.381,0,0,0,0.990479340631617,0.137661453508082,-0,-0,0,0,0,0.2,0,0,0,0,0,0,0,0
1.382,0,0,0,0.990465569533892,0.137760500753673,-0,-0,0,0,0,0.2,0,0,0,0,0,0,0,0
1.383,0,0,0,0.990451788531512,0.137859546621659,-0,-0,0,0,0,0.2,0,0,0,0,0,0,0,0
1.384,0,0,0,0.990437997624614,0.137958591111049,-0,-0,0,0,0,0.2,0,0,0,0,0,0,0,0
1.385,0,0,0,0.990424196813336,0.138057634220854,-0,-0,0,0,0,0.2,0,0,0,0,0,0,0,0
1.386,0,0,0,0.990410386097816,0.138156675950082,-0,-0,0,0,0,0.2,0,0,0,0,0,0,0,0
1.387,0,0,0,0.990396565478192,0.138255716297743,-0,-0,0,0,0,0.2,0,0,0,0,0,0,0,0
1.388,0,0,0,0.990382734954602,0.138354755262847,-0,-0,0,0,0,0.2,0,0,0,0,0,0,0,0
1.389,0,0,0,0.990368894527185,0.138453792844404,-0,-0,0,0,0,0.2,0,0,0,0,0,0,0,0
1.39,0,0,0,0.99035504419608,0.138552829041422,-0,-0,0,0,0,0.2,0,0,0,0,0,0,0,0
1.391,0,0,0,0.990341183961423,0.138651863852913,-0,-0,0,0,0,0.2,0,0,0,0,0,0,0,0
1.392,0,0,0,0.990327313823355,0.138750897277884,-0,-0,0,0,0,0.2,0,0,0,0,0,0,0,0
1.393,0,0,0,0.990313433782014,0.138849929315347,-0,-0,0,0,0,0.2,0,0,0,0,0,0,0,0
1.394,0,0,0,0.990299543837538,0.13894895996431,-0,-0,0,0,0,0.2,0,0,0,0,0,0,0,0
1.395,0,0,0,0.990285643990067,0.139047989223784,-0,-0,0,0,0,0.2,0,0,0,0,0,0,0,0
1.396,0,0,0,0.99027173423974,0.139147017092778,-0,-0,0,0,0,0.2,0,0,0,0,0,0,0,0
1.397,0,0,0,0.990257814586695,0.139246043570302,-0,-0,0,0,0,0.2,0,0,0,0,0,0,0,0
1.398,0,0,0,0.990243885031072,0.139345068655365,-0,-0,0,0,0,0.2,0,0,0,0,0,0,0,0
1.399,0,0,0,0.990229945573011,0.139444092346978,-0,-0,0,0,0,0.2,0,0,0,0,0,0,0,0
1.4,0,0,0,0.99021599621265,0.13954311464415,-0,-0,0,0,0,0.2,0,0,0,0,0,0,0,0
1.401,0,0,0,0.990202036950128,0.13964213554589,-0,-0,0,0,0,0.2,0,0,0,0,0,0,0,0
1.402,0,0,0,0.990188067785587,0.13974115505121,-0,-0,0,0,0,0.2,0,0,0,0,0,0,0,0
1.403,0,0,0,0.990174088719165,0.139840173159117,-0,-0,0,0,0,0.2,0,0,0,0,0,0,0,0
1.404,0,0,0,0.990160099751002,0.139939189868623,-0,-0,0,0,0,0.2,0,0,0,0,0,0,0,0
1.405,0,0,0,0.990146100881237,0.140038205178737,-0,-0,0,0,0,0.2,0,0,0,0,0,0,0,0
1.406,0,0,0,0.990132092110013,0.140137219088469,-0,-0,0,0,0,0.2,0,0,0,0,0,0,0,0
1.407,0,0,0,0.990118073437467,0.140236231596829,-0,-0,0,0,0,0.2,0,0,0,0,0,0,0,0
1.408,0,0,0,0.99010404486374,0.140335242702827,-0,-0,0,0,0,0.2,0,0,0,0,0,0,0,0
1.409,0,0,0,0.990090006388973,0.140434252405472,-0,-0,0,0,0,0.2,0,0,0,0,0,0,0,0
1.41,0,0,0,0.990075958013306,0.140533260703774,-0,-0,0,0,0,0.2,0,0,0,0,0,0,0,0
1.411,0,0,0,0.990061899736879,0.140632267596744,-0,-0,0,0,0,0.2,0,0,0,0,0,0,0,0
1.412,0,0,0,0.990047831559833,0.140731273083392,-0,-0,0,0,0,0.2,0,0,0,0,0,0,0,0
1.413,0,0,0,0.990033753482309,0.140830277162726,-0,-0,0,0,0,0.2,0,0,0,0,0,0,0,0
1.414,0,0,0,0.990019665504448,0.140929279833758,-0,-0,0,0,0,0.2,0,0,0,0,0,0,0,0
1.415,0,0,0,0.990005567626389,0.141028281095497,-0,-0,0,0,0,0.2,0,0,0,0,0,0,0,0
1.416,0,0,0,0.989991459848276,0.141127280946953,-0,-0,0,0,0,0.2,0,0,0,0,0,0,0,0
1.417,0,0,0,0.989977342170247,0.141226279387136,-0,-0,0,0,0,0.2,0,0,0,0,0,0,0,0
1.418,0,0,0,0.989963214592445,0.141325276415057,-0,-0,0,0,0,0.2,0,0,0,0,0,0,0,0
1.419,0,0,0,0.989949077115011,0.141424272029725,-0,-0,0,0,0,0.2,0,0,0,0,0,0,0,0
1.42,0,0,0,0.989934929738087,0.14152326623015,-0,-0,0,0,0,0.2,0,0,0,0,0,0,0,0
1.421,0,0,0,0.989920772461812,0.141622259015342,-0,-0,0,0,0,0.2,0,0,0,0,0,0,0,0
1.422,0,0,0,0.989906605286331,0.141721250384312,-0,-0,0,0,0,0.2,0,0,0,0,0,0,0,0
1.423,0,0,0,0.989892428211783,0.141820240336069,-0,-0,0,0,0,0.2,0,0,0,0,0,0,0,0
1.424,0,0,0,0.989878241238311,0.141919228869624,-0,-0,0,0,0,0.2,0,0,0,0,0,0,0,0
1.425,0,0,0,0.989864044366056,0.142018215983987,-0,-0,0,0,0,0.2,0,0,0,0,0,0,0,0
1.426,0,0,0,0.989849837595161,0.142117201678167,-0,-0,0,0,0,0.2,0,0,0,0,0,0,0,0
1.427,0,0,0,0.989835620925768,0.142216185951176,-0,-0,0,0,0,0.2,0,0,0,0,0,0,0,0
1.428,0,0,0,0.989821394358018,0.142315168802023,-0,-0,0,0,0,0.2,0,0,0,0,0,0,0,0
1.429,0,0,0,0.989807157892055,0.142414150229718,-0,-0,0,0,0,0.2,0,0,0,0,0,0,0,0
1.43,0,0,0,0.98979291152802,0.142513130233271,-0,-0,0,0,0,0.2,0,0,0,0,0,0,0,0
1.431,0,0,0,0.989778655266056,0.142612108811693,-0,-0,0,0,0,0.2,0,0,0,0,0,0,0,0
1.432,0,0,0,0.989764389106305,0.142711085963994,-0,-0,0,0,0,0.2,0,0,0,0,0,0,0,0
1.433,0,0,0,0.989750113048911,0.142810061689184,-0,-0,0,0,0,0.2,0,0,0,0,0,0,0,0
1.434,0,0,0,0.989735827094015,0.142909035986274,-0,-0,0,0,0,0.2,0,0,0,0,0,0,0,0
1.435,0,0,0,0.989721531241761,0.143008008854273,-0,-0,0,0,0,0.2,0,0,0,0,0,0,0,0
1.436,0,0,0,0.989707225492292,0.143106980292192,-0,-0,0,0,0,0.2,0,0,0,0,0,0,0,0
1.437,0,0,0,0.98969290984575,0.143205950299041,-0,-0,0,0,0,0.2,0,0,0,0,0,0,0,0
1.438,0,0,0,0.98967858430228,0.143304918873831,-0,-0,0,0,0,0.2,0,0,0,0,0,0,0,0
1.439,0,0,0,0.989664248862023,0.143403886015572,-0,-0,0,0,0,0.2,0,0,0,0,0,0,0,0
1.44,0,0,0,0.989649903525124,0.143502851723274,-0,-0,0,0,0,0.2,0,0,0,0,0,0,0,0
1.441,0,0,0,0.989635548291727,0.143601815995947,-0,-0,0,0,0,0.2,0,0,0,0,0,0,0,0
1.442,0,0,0,0.989621183161973,0.143700778832602,-0,-0,0,0,0,0.2,0,0,0,0,0,0,0,0
1.443,0,0,0,0.989606808136008,0.143799740232249,-0,-0,0,0,0,0.2,0,0,0,0,0,0,0,0
1.444,0,0,0,0.989592423213975,0.143898700193899,-0,-0,0,0,0,0.2,0,0,0,0,0,0,0,0
1.445,0,0,0,0.989578028396017,0.143997658716562,-0,-0,0,0,0,0.2,0,0,0,0,0,0,0,0
1.446,0,0,0,0.989563623682279,0.144096615799248,-0,-0,0,0,0,0.2,0,0,0,0,0,0,0,0
1.447,0,0,0,0.989549209072905,0.144195571440969,-0,-0,0,0,0,0.2,0,0,0,0,0,0,0,0
1.448,0,0,0,0.989534784568039,0.144294525640733,-0,-0,0,0,0,0.2,0,0,0,0,0,0,0,0
1.449,0,0,0,0.989520350167825,0.144393478397552,-0,-0,0,0,0,0.2,0,0,0,0,0,0,0,0
1.45,0,0,0,0.989505905872408,0.144492429710437,-0,-0,0,0,0,0.2,0,0,0,0,0,0,0,0
1.451,0,0,0,0.989491451681931,0.144591379578397,-0,-0,0,0,0,0.2,0,0,0,0,0,0,0,0
1.452,0,0,0,0.98947698759654,0.144690328000443,-0,-0,0,0,0,0.2,0,0,0,0,0,0,0,0
1.453,0,0,0,0.98946251361638,0.144789274975586,-0,-0,0,0,0,0.2,0,0,0,0,0,0,0,0
1.454,0,0,0,0.989448029741594,0.144888220502836,-0,-0,0,0,0,0.2,0,0,0,0,0,0,0,0
1.455,0,0,0,0.989433535972327,0.144987164581204,-0,-0,0,0,0,0.2,0,0,0,0,0,0,0,0
1.456,0,0,0,0.989419032308726,0.145086107209701,-0,-0,0,0,0,0.2,0,0,0,0,0,0,0,0
1.457,0,0,0,0.989404518750934,0.145185048387336,-0,-0,0,0,0,0.2,0,0,0,0,0,0,0,0
1.458,0,0,0,0.989389995299097,0.145283988113121,-0,-0,0,0,0,0.2,0,0,0,0,0,0,0,0
1.459,0,0,0,0.98937546195336,0.145382926386066,-0,-0,0,0,0,0.2,0,0,0,0,0,0,0,0
1.46,0,0,0,0.989360918713868,0.145481863205182,-0,-0,0,0,0,0.2,0,0,0,0,0,0,0,0
1.461,0,0,0,0.989346365580767,0.145580798569479,-0,-0,0,0,0,0.2,0,0,0,0,0,0,0,0
1.462,0,0,0,0.989331802554203,0.145679732477968,-0,-0,0,0,0,0.2,0,0,0,0,0,0,0,0
1.463,0,0,0,0.98931722963432,0.14577866492966,-0,-0,0,0,0,0.2,0,0,0,0,0,0,0,0
1.464,0,0,0,0.989302646821265,0.145877595923565,-0,-0,0,0,0,0.2,0,0,0,0,0,0,0,0
1.465,0,0,0,0.989288054115184,0.145976525458694,-0,-0,0,0,0,0.2,0,0,0,0,0,0,0,0
1.466,0,0,0,0.989273451516222,0.146075453534058,-0,-0,0,0,0,0.2,0,0,0,0,0,0,0,0
1.467,0,0,0,0.989258839024526,0.146174380148668,-0,-0,0,0,0,0.2,0,0,0,0,0,0,0,0
1.468,0,0,0,0.989244216640241,0.146273305301533,-0,-0,0,0,0,0.2,0,0,0,0,0,0,0,0
1.469,0,0,0,0.989229584363514,0.146372228991666,-0,-0,0,0,0,0.2,0,0,0,0,0,0,0,0
1.47,0,0,0,0.989214942194492,0.146471151218076,-0,-0,0,0,0,0.2,0,0,0,0,0,0,0,0
1.471,0,0,0,0.98920029013332,0.146570071979775,-0,-0,0,0,0,0.2,0,0,0,0,0,0,0,0
1.472,0,0,0,0.989185628180145,0.146668991275773,-0,-0,0,0,0,0.2,0,0,0,0,0,0,0,0
1.473,0,0,0,0.989170956335113,0.146767909105081,-0,-0,0,0,0,0.2,0,0,0,0,0,0,0,0
1.474,0,0,0,0.989156274598373,0.14686682546671,-0,-0,0,0,0,0.2,0,0,0,0,0,0,0,0
1.475,0,0,0,0.989141582970069,0.146965740359671,-0,-0,0,0,0,0.2,0,0,0,0,0,0,0,0
1.476,0,0,0,0.98912688145035,0.147064653782974,-0,-0,0,0,0,0.2,0,0,0,0,0,0,0,0
1.477,0,0,0,0.989112170039361,0.147163565735631,-0,-0,0,0,0,0.2,0,0,0,0,0,0,0,0
1.478,0,0,0,0.989097448737251,0.147262476216652,-0,-0,0,0,0,0.2,0,0,0,0,0,0,0,0
1.479,0,0,0,0.989082717544167,0.147361385225049,-0,-0,0,0,0,0.2,0,0,0,0,0,0,0,0
1.48,0,0,0,0.989067976460256,0.147460292759831,-0,-0,0,0,0,0.2,0,0,0,0,0,0,0,0
1.481,0,0,0,0.989053225485665,0.147559198820011,-0,-0,0,0,0,0.2,0,0,0,0,0,0,0,0
1.482,0,0,0,0.989038464620541,0.147658103404599,-0,-0,0,0,0,0.2,0,0,0,0,0,0,0,0
1.483,0,0,0,0.989023693865033,0.147757006512605,-0,-0,0,0,0,0.2,0,0,0,0,0,0,0,0
1.484,0,0,0,0.989008913219288,0.147855908143042,-0,-0,0,0,0,0.2,0,0,0,0,0,0,0,0
1.485,0,0,0,0.988994122683453,0.147954808294919,-0,-0,0,0,0,0.2,0,0,0,0,0,0,0,0
1.486,0,0,0,0.988979322257678,0.148053706967249,-0,-0,0,0,0,0.2,0,0,0,0,0,0,0,0
1.487,0,0,0,0.98896451194211,0.148152604159041,-0,-0,0,0,0,0.2,0,0,0,0,0,0,0,0
1.488,0,0,0,0.988949691736896,0.148251499869307,-0,-0,0,0,0,0.2,0,0,0,0,0,0,0,0
1.489,0,0,0,0.988934861642185,0.148350394097059,-0,-0,0,0,0,0.2,0,0,0,0,0,0,0,0
1.49,0,0,0,0.988920021658126,0.148449286841306,-0,-0,0,0,0,0.2,0,0,0,0,0,0,0,0
1.491,0,0,0,0.988905171784866,0.148548178101061,-0,-0,0,0,0,0.2,0,0,0,0,0,0,0,0
